Folder: ML-for-Si-Battery-Electrolyte/Cell-test-data/SiMP-LFP-SS10

Note: README.md
# ML-for-Si-Battery-Electrolyte

File: JB4_SiMPs-LFP-BSF10-A6_Channel_37_StatisticByCycle.CSV
Date_Time                    ,Test Time (s),Step Time (s),Cycle Index,Step Index,Current (A),Voltage (V),Power (W),Charge Capacity (Ah),Discharge Capacity (Ah),Charge Energy (Wh),Discharge Energy (Wh),Charge Time (s),Discharge Time (s),V_Max_On_Cycle (V),Coulombic Efficiency (%),mAh/g
	05/16/2022 16:46:47.689,178413,59384.9,1,3,-0.0001589961,2.499993,-0.000397489,0.003348496,0.002622473,0.01104027,0.007753413,75818.64,59377.55,0,78.31794,,
	05/19/2022 13:13:09.924,424796,5753.18,5,6,-0.001060159,2.499991,-0.00265039,0.001735968,0.001693927,0.005776406,0.004739875,5895.263,5752.453,0,97.57824,,
	05/20/2022 01:41:49.585,469715,5454.03,9,6,-0.001060151,2.499997,-0.00265037,0.00163959,0.001605852,0.005454284,0.004491901,5567.835,5453.342,0,97.94229,,
	05/20/2022 13:36:29.937,512596,5205.32,13,6,-0.001060116,2.49999,-0.00265028,0.001565459,0.001532671,0.005206444,0.004286791,5316.176,5204.693,0,97.90552,,
	05/21/2022 01:02:26.859,553752,4996.29,17,6,-0.001060126,2.499995,-0.00265031,0.001503701,0.001471097,0.004999874,0.004115235,5106.538,4995.652,0,97.83177,,
	05/21/2022 11:55:36.543,592942,4770.768,21,6,-0.001060119,2.499988,-0.00265028,0.001432761,0.001404692,0.004765603,0.003926731,4865.525,4770.189,0,98.04092,,
	05/21/2022 22:23:35.240,630621,4585.51,25,6,-0.001060149,2.499999,-0.00265037,0.001376042,0.001350057,0.004577672,0.003772913,4672.996,4584.928,0,98.11161,,
	05/22/2022 08:26:59.492,666825,4422.97,29,6,-0.001060154,2.499995,-0.00265038,0.001327245,0.001302188,0.004415262,0.003638406,4507.12,4422.396,0,98.11211,,
	05/22/2022 18:09:09.232,701755,4282.04,33,6,-0.00106017,2.499982,-0.00265041,0.001284374,0.001260632,0.004272118,0.00352268,4361.713,4281.496,0,98.1515,,
	05/23/2022 03:30:52.101,735458,4121.68,37,6,-0.001059882,2.499982,-0.00264969,0.001234025,0.001213309,0.00410513,0.003388271,4190.603,4121.172,0,98.3213,,
	05/23/2022 12:33:58.977,768045,3993.83,41,6,-0.001059827,2.49998,-0.00264955,0.001195058,0.001175816,0.003975508,0.003282878,4058.275,3993.319,0,98.38993,,
	05/23/2022 21:20:21.543,799627,3868.15,45,6,-0.00105984,2.499995,-0.00264959,0.001157998,0.001138798,0.003851511,0.003178856,3932.498,3867.676,0,98.34203,,
	05/24/2022 05:50:29.657,830235,3750.79,49,6,-0.001060149,2.499991,-0.00265036,0.001122659,0.0011044,0.003733727,0.003082043,3812.406,3750.321,0,98.37361,,
	05/24/2022 14:05:12.049,859918,3628.71,53,6,-0.001060135,2.499986,-0.00265032,0.001086043,0.001068463,0.003613451,0.002978945,3687.986,3628.281,0,98.38123,,
	05/24/2022 22:05:11.504,888717,3532.83,57,6,-0.001060173,2.499965,-0.0026504,0.001057135,0.001040209,0.003516651,0.002899967,3590.359,3532.417,0,98.39888,,
	05/25/2022 05:54:24.305,916870,3476.74,61,6,-0.001060138,2.499984,-0.00265033,0.001040117,0.001023686,0.003458743,0.00285601,3532.261,3476.299,0,98.42027,,
	05/25/2022 13:31:29.544,944295.148,3346.43,65,6,-0.00106014,2.499999,-0.00265035,0.001001162,0.0009852216,0.003329832,0.002745464,3399.79,3345.995,0,98.40782,,
	05/25/2022 20:54:17.773,970863,3261.77,69,6,-0.001059837,2.499997,-0.00264959,0.0009755908,0.0009602422,0.003244366,0.002675303,3312.929,3261.375,0,98.42673,,
	05/26/2022 04:05:51.798,996757.402,3180.84,73,6,-0.001060177,2.499997,-0.00265044,0.0009511596,0.0009364144,0.003163009,0.0026083,3230.052,3180.438,0,98.44976,,
	05/26/2022 11:03:37.335,1021822.939,3056.36,77,6,-0.001060168,2.499974,-0.00265039,0.0009135847,0.0008996878,0.003044655,0.002497497,3102.58,3055.847,0,98.47886,,
	05/26/2022 17:47:56.194,1.04608e+06,2980.68,81,6,-0.001060145,2.499999,-0.00265036,0.0008911162,0.0008775778,0.002969401,0.002435524,3026.349,2980.227,0,98.48073,,
	05/27/2022 00:22:31.891,1.06976e+06,2911.11,85,6,-0.001059834,2.499974,-0.00264956,0.0008700776,0.0008569162,0.002899045,0.002377935,2954.663,2910.607,0,98.48734,,
	05/27/2022 06:48:16.680,1.0929e+06,2846.48,89,6,-0.00105986,2.499993,-0.00264964,0.000851112,0.0008380038,0.002835623,0.002324999,2890.517,2846.037,0,98.45988,,
	05/27/2022 13:05:17.203,1.11552e+06,2784.96,93,6,-0.001059855,2.499993,-0.00264963,0.0008327052,0.0008198327,0.002774349,0.002274286,2828.078,2784.483,0,98.45414,,
	05/27/2022 19:14:04.129,1.13765e+06,2718.59,97,6,-0.001059837,2.499988,-0.00264958,0.0008132126,0.0008002778,0.002709149,0.002219203,2762.178,2718.19,0,98.40942,,
	05/28/2022 01:14:05.505,1159251.109,2656.4,101,6,-0.001059907,2.499988,-0.00264975,0.0007942427,0.0007819244,0.002646092,0.002167628,2697.505,2655.834,0,98.44905,,
	05/28/2022 07:06:18.326,1.18038e+06,2599.082,105,6,-0.001059849,2.499993,-0.00264962,0.0007776802,0.0007651281,0.002590885,0.002120506,2641.401,2598.684,0,98.38595,,
	05/28/2022 12:51:47.979,1.20111e+06,2554.68,109,6,-0.001060119,2.499991,-0.00265029,0.0007643375,0.0007520991,0.002546058,0.00208456,2596.022,2554.263,0,98.39881,,
	05/28/2022 18:30:46.800,1.22145e+06,2502.29,113,6,-0.001060163,2.499999,-0.00265041,0.0007486652,0.0007367001,0.002493716,0.002041245,2542.6,2501.851,0,98.4018,,
	05/29/2022 00:02:06.976,1.24133e+06,2443.87,117,6,-0.001059834,2.499995,-0.00264958,0.0007309236,0.0007194364,0.002434914,0.001992488,2482.531,2443.469,0,98.42841,,
	05/29/2022 05:26:21.627,1.26079e+06,2394.651,121,6,-0.001060135,2.499969,-0.0026503,0.0007162857,0.0007049492,0.002386149,0.001951922,2432.577,2394.308,0,98.41733,,
	05/29/2022 10:44:28.471,1279874.075,2353.994,125,6,-0.001059846,2.499982,-0.0026496,0.0007043455,0.000692952,0.002345959,0.001918873,2392.302,2353.667,0,98.3824,,
	05/29/2022 15:57:06.431,1.29863e+06,2305.65,129,6,-0.001060149,2.499993,-0.00265037,0.0006900107,0.0006788483,0.002298259,0.001879071,2343.161,2305.254,0,98.38229,,
	05/29/2022 21:03:46.387,1317031.991,2265.68,133,6,-0.001060138,2.499997,-0.00265034,0.0006781985,0.000667056,0.002258807,0.001846276,2303.082,2265.343,0,98.35703,,
	05/30/2022 02:04:29.188,1.33507e+06,2220.17,137,6,-0.001060147,2.499991,-0.00265036,0.0006645722,0.0006536433,0.002213453,0.001808815,2256.982,2219.915,0,98.35549,,
	05/30/2022 06:59:25.034,1.35277e+06,2178.94,141,6,-0.001059813,2.499991,-0.00264952,0.0006520429,0.0006414978,0.002171642,0.001774875,2214.597,2178.539,0,98.38276,,
	05/30/2022 11:49:16.186,1.37016e+06,2144,145,6,-0.001060159,2.49999,-0.00265039,0.0006415421,0.000631172,0.002136691,0.001746126,2178.755,2143.591,0,98.38356,,
	05/30/2022 16:33:46.561,1.38723e+06,2100.5,149,6,-0.001060161,2.49999,-0.00265039,0.0006288521,0.0006184628,0.002094405,0.001710519,2135.477,2100.198,0,98.3479,,
	05/30/2022 21:13:03.693,1.40399e+06,2062.592,153,6,-0.001060124,2.499986,-0.0026503,0.0006177325,0.0006072962,0.002057373,0.001679352,2097.89,2062.258,0,98.31055,,
	05/31/2022 01:47:48.470,1420474.074,2030.66,157,6,-0.001060156,2.499995,-0.00265038,0.0006077884,0.0005978539,0.002024128,0.001653104,2064.318,2030.333,0,98.36546,,
	05/31/2022 06:17:53.276,1.43668e+06,1995.96,161,6,-0.001060151,2.499969,-0.00265034,0.0005975235,0.0005876507,0.00199,0.001624683,2029.527,1995.595,0,98.34771,,
	05/31/2022 10:43:48.704,1.45263e+06,1968.72,165,6,-0.001060139,2.499995,-0.00265034,0.0005896221,0.0005796273,0.001963698,0.001602451,2002.725,1968.341,0,98.30488,,
	05/31/2022 15:04:56.003,1.4683e+06,1929.27,169,6,-0.001060131,2.499999,-0.00265033,0.0005776013,0.0005680476,0.001923722,0.001569935,1961.42,1928.981,0,98.34597,,
	05/31/2022 19:22:01.153,1.48373e+06,1900.57,173,6,-0.001060117,2.499999,-0.00265029,0.0005690454,0.0005596113,0.001895177,0.001546576,1932.376,1900.338,0,98.34212,,
	05/31/2022 23:35:29.614,1498935.218,1872.92,177,6,-0.001060139,2.499995,-0.00265034,0.0005606844,0.0005514486,0.00186732,0.001523891,1904.164,1872.614,0,98.35275,,
	06/01/2022 03:45:03.755,1.51391e+06,1844.33,181,6,-0.00106013,2.499997,-0.00265032,0.000552171,0.0005430268,0.001838827,0.001500547,1875.438,1844.011,0,98.34396,,
	06/01/2022 07:51:01.153,1.52867e+06,1820.37,185,6,-0.001059867,2.499993,-0.00264966,0.0005450157,0.0005359679,0.001815228,0.00148092,1851.001,1820.033,0,98.3399,,
	06/01/2022 11:53:40.833,1.54323e+06,1796.97,189,6,-0.001060142,2.499999,-0.00265035,0.0005378296,0.0005290789,0.001790839,0.001462577,1826.366,1796.666,0,98.37295,,
	06/01/2022 15:53:49.826,1.55764e+06,1773.51,193,6,-0.001060082,2.499995,-0.0026502,0.0005311763,0.0005221652,0.001768081,0.001443811,1803.855,1773.185,0,98.30357,,
	06/01/2022 19:50:36.626,1571842.23,1750.267,197,6,-0.001060116,2.499982,-0.00265027,0.0005242126,0.0005153442,0.001744787,0.001425021,1780.151,1750.029,0,98.30824,,
	06/01/2022 22:46:04.838,1582370.442,1736.61,200,6,-0.001060112,2.499991,-0.00265027,0.0005200821,0.0005113089,0.001730858,0.001414136,1766.149,1736.315,0,98.31311,,

File: JB4_SiMPs-LFP-BSF10-A6_Channel_37_StatisticByStep.CSV
Date_Time                    ,Test Time (s),Step Time (s),Cycle Index,Step Index,Current (A),Voltage (V),Power (W),Charge Capacity (Ah),Discharge Capacity (Ah),Charge Energy (Wh),Discharge Energy (Wh),Charge Time (s),Discharge Time (s),V_Max_On_Cycle (V),Coulombic Efficiency (%),mAh/g
	05/15/2022 03:13:14.397,43200,43200,1.00,1.00,0,0.2889814,0,0,0,0,0,0,0,0,0,,
	05/19/2022 08:18:49.961,407136,6712.34,4.00,5.00,0.001060096,3.500005,0.00371034,0.00197632,2.91471E-10,0.006573088,7.286721E-10,6711.52,0.0066,0,1.474817E-05,,
	05/19/2022 19:32:41.057,447567,5590.38,7.00,6.00,-0.001059853,2.499999,-0.00264963,0.001683605,0.001645802,0.005600224,0.004603579,5717.289,5589.685,0,97.75466,,
	05/20/2022 06:14:34.685,486080,5451.84,11.00,5.00,0.001060124,3.50002,0.00371046,0.00160509,3.269217E-09,0.005338259,8.172823E-09,5451.203,0.0111,0,0.0002036781,,
	05/20/2022 16:30:44.142,523050,5175.95,14.00,6.00,-0.001060068,2.499997,-0.00265017,0.001554089,0.001524013,0.005168509,0.004264669,5277.56,5175.298,0,98.0647,,
	05/21/2022 02:26:10.541,558776,5023.65,18.00,5.00,0.001060102,3.500003,0.00371036,0.001479159,2.915797E-09,0.004919379,7.289681E-09,5022.992,0.0089,0,0.0001971254,,
	05/21/2022 11:55:36.543,592942,4770.77,21.00,6.00,-0.001060119,2.499988,-0.00265028,0.001432761,0.001404692,0.004765603,0.003926731,4865.525,4770.189,0,98.04092,,
	05/21/2022 21:07:09.704,626035,4673.57,25.00,5.00,0.001060045,3.500001,0.00371016,0.001376041,3.826761E-09,0.004577667,9.567146E-09,4672.991,0.013,0,0.0002780994,,
	05/22/2022 05:58:08.756,657894,4466.95,28.00,6.00,-0.001060149,2.499965,-0.00265034,0.001338934,0.001315148,0.004454138,0.003674937,4546.814,4466.375,0,98.22346,,
	05/22/2022 14:33:13.797,688799,4384.66,32.00,5.00,0.001060033,3.500028,0.00371015,0.001290949,1.766721E-09,0.004294715,4.416743E-09,4384.093,0.006,0,0.0001368545,,
	05/22/2022 22:52:33.672,718759,4192.51,35.00,6.00,-0.001059862,2.499995,-0.00264965,0.001256624,0.001234315,0.004180395,0.003447091,4267.598,4191.97,0,98.22468,,
	05/23/2022 06:57:01.795,747827,4123.69,39.00,5.00,0.001060075,3.500005,0.00371027,0.001214171,3.179571E-09,0.004038854,7.948592E-09,4123.192,0.0108,0,0.0002618718,,
	05/23/2022 14:47:05.391,776031,3958.9,42.00,6.00,-0.001059869,2.499986,-0.00264966,0.001185827,0.001165533,0.003944668,0.003253884,4026.971,3958.407,0,98.28861,,
	05/23/2022 22:25:24.645,803530,3903.07,46.00,5.00,0.001060156,3.500001,0.00371055,0.001149218,3.356281E-09,0.003822109,8.390798E-09,3902.601,0.0101,0,0.0002920491,,
	05/24/2022 05:50:29.657,830235,3750.79,49.00,6.00,-0.001060149,2.499991,-0.00265036,0.001122659,0.0011044,0.003733727,0.003082043,3812.406,3750.321,0,98.37361,,
	05/24/2022 13:04:43.312,856289,3688.43,53.00,5.00,0.001060136,3.500001,0.00371048,0.001086042,3.475245E-09,0.003613447,8.687746E-09,3687.981,0.0118,0,0.0003199918,,
	05/24/2022 20:06:27.824,881593,3557.17,56.00,6.00,-0.001060163,2.499982,-0.00265039,0.001063979,0.00104727,0.003539464,0.002919772,3613.467,3556.716,0,98.42957,,
	05/25/2022 02:59:28.316,906374,3542.86,60.00,5.00,0.001060084,3.500012,0.00371031,0.001043111,3.003247E-09,0.003469243,7.508073E-09,3542.391,0.0102,0,0.0002879125,,
	05/25/2022 09:45:46.057,930752,3421.42,63.00,6.00,-0.001060158,2.49999,-0.00265038,0.001025253,0.001007397,0.003408571,0.002809276,3481.765,3421.018,0,98.25837,,
	05/25/2022 16:19:11.739,954357,3359.12,67.00,5.00,0.001060124,3.50001,0.00371044,0.0009890536,2.915421E-09,0.003289366,7.287771E-09,3358.706,0.0099,0,0.0002947687,,
	05/25/2022 22:43:14.864,977400,3243.26,70.00,6.00,-0.001060116,2.499991,-0.00265028,0.0009698224,0.0009548567,0.003225248,0.002660255,3293.356,3242.871,0,98.45686,,
	05/26/2022 04:59:23.476,999969,3211.65,74.00,5.00,0.00106015,3.500001,0.00371053,0.0009455906,6.479749E-10,0.00314442,1.619888E-09,3211.22,0.0022,0,6.852594E-05,,
	05/26/2022 11:03:37.335,1.02182e+06,3056.36,77.00,6.00,-0.001060168,2.499974,-0.00265039,0.0009135847,0.0008996878,0.003044655,0.002497497,3102.58,3055.847,0,98.47886,,
	05/26/2022 16:58:15.490,1.0431e+06,3026.86,81.00,5.00,0.001060158,3.500001,0.00371055,0.0008911148,2.031758E-09,0.002969396,5.079376E-09,3026.344,0.0069,0,0.0002280018,,
	05/26/2022 22:44:45.581,1.06389e+06,2927.19,84.00,6.00,-0.001059823,2.499993,-0.00264955,0.0008755585,0.0008617745,0.002917332,0.002391532,2973.425,2926.735,0,98.42569,,
	05/27/2022 04:24:56.147,1.0843e+06,2907.74,88.00,5.00,0.001059857,3.50001,0.00370951,0.0008559978,1.767122E-09,0.002851995,4.417829E-09,2907.281,0.006,0,0.00020644,,
	05/27/2022 09:57:50.755,1.10428e+06,2813.39,91.00,6.00,-0.001059862,2.499982,-0.00264964,0.0008411505,0.0008282432,0.002802489,0.002297593,2856.737,2813.003,0,98.46551,,
	05/27/2022 15:24:56.748,1.1239e+06,2798.25,95.00,5.00,0.001059848,3.500003,0.00370947,0.0008237546,1.885067E-09,0.00274427,4.712734E-09,2797.819,0.0055,0,0.0002288385,,
	05/27/2022 20:44:52.641,1.1431e+06,2703.09,98.00,6.00,-0.001060175,2.499991,-0.00265043,0.0008083171,0.0007958292,0.002693084,0.002206774,2744.979,2702.663,0,98.45508,,
	05/28/2022 01:58:49.114,1.16193e+06,2683.58,102.00,5.00,0.001059874,3.500005,0.00370956,0.0007900363,1.560421E-09,0.002632096,3.90107E-09,2683.263,0.0053,0,0.0001975126,,
	05/28/2022 07:06:18.326,1.18038e+06,2599.08,105.00,6.00,-0.001059849,2.499993,-0.00264962,0.0007776802,0.0007651281,0.002590885,0.002120506,2641.401,2598.684,0,98.38595,,
	05/28/2022 12:09:13.277,1.19856e+06,2596.48,109.00,5.00,0.00106015,3.500005,0.00371053,0.0007643364,1.56063E-09,0.002546054,3.901753E-09,2596.018,0.0053,0,0.000204181,,
	05/28/2022 17:06:41.440,1.21641e+06,2514.87,112.00,6.00,-0.001060142,2.499995,-0.00265035,0.0007518268,0.0007404332,0.002504213,0.002051823,2553.354,2514.453,0,98.48455,,
	05/28/2022 21:59:02.396,1.23395e+06,2498.02,116.00,5.00,0.001059873,3.500009,0.00370957,0.0007354245,1.884993E-09,0.002449905,4.712419E-09,2497.601,0.0064,0,0.0002563137,,
	05/29/2022 02:45:02.277,1.25111e+06,2418.03,119.00,6.00,-0.001059848,2.499982,-0.0026496,0.0007232291,0.0007117625,0.002409278,0.001970991,2456.478,2417.594,0,98.41453,,
	05/29/2022 07:26:32.768,1.268e+06,2408.11,123.00,5.00,0.001059873,3.500003,0.00370956,0.0007088533,2.150211E-09,0.002361328,5.375496E-09,2407.706,0.0061,0,0.0003033366,,
	05/29/2022 12:03:16.169,1.2846e+06,2344.31,126.00,6.00,-0.001060142,2.499984,-0.00265034,0.0007016573,0.0006901459,0.002337025,0.001911027,2382.833,2343.83,0,98.35939,,
	05/29/2022 16:35:58.714,1.30096e+06,2332.25,130.00,5.00,0.00106013,3.500003,0.00371046,0.0006866559,1.884465E-09,0.002287162,4.711238E-09,2331.844,0.0055,0,0.0002744409,,
	05/29/2022 21:03:46.387,1.31703e+06,2265.68,133.00,6.00,-0.001060138,2.499997,-0.00265034,0.0006781985,0.000667056,0.002258807,0.001846276,2303.082,2265.343,0,98.35703,,
	05/30/2022 01:27:28.992,1.33285e+06,2257.24,137.00,5.00,0.001059848,3.500001,0.00370947,0.0006645708,2.032244E-09,0.002213448,5.080401E-09,2256.978,0.0058,0,0.000305798,,
	05/30/2022 05:46:11.106,1.34838e+06,2188.73,140.00,6.00,-0.001059853,2.499986,-0.00264962,0.0006548166,0.0006443682,0.002180896,0.001782861,2224.195,2188.371,0,98.40437,,
	05/30/2022 10:01:22.366,1.36369e+06,2187.18,144.00,5.00,0.001059839,3.500001,0.00370944,0.0006438708,1.26609E-09,0.002144347,3.165038E-09,2186.839,0.0043,0,0.0001966373,,
	05/30/2022 14:12:14.231,1.37874e+06,2120.65,147.00,6.00,-0.001060161,2.499995,-0.0026504,0.0006345466,0.0006243346,0.002113308,0.001726871,2154.84,2120.278,0,98.39067,,
	05/30/2022 18:19:19.682,1.39357e+06,2116.24,151.00,5.00,0.001060142,3.500001,0.0037105,0.0006231002,1.796722E-09,0.00207526,4.491619E-09,2115.945,0.0052,0,0.0002883521,,
	05/30/2022 22:22:08.582,1.40813e+06,2055.73,154.00,6.00,-0.001060139,2.499993,-0.00265034,0.000615107,0.000605283,0.002048534,0.001673809,2088.78,2055.423,0,98.40287,,
	05/31/2022 02:22:04.573,1.42253e+06,2056.07,158.00,5.00,0.001059865,3.50002,0.00370955,0.0006052244,2.297355E-09,0.002015605,5.742964E-09,2055.711,0.0078,0,0.0003795873,,
	05/31/2022 06:17:53.276,1.43668e+06,1995.96,161.00,6.00,-0.001060151,2.499969,-0.00265034,0.0005975235,0.0005876507,0.00199,0.001624683,2029.527,1995.595,0,98.34771,,
	05/31/2022 10:10:59.965,1.45067e+06,2003.07,165.00,5.00,0.001060161,3.500001,0.00371056,0.000589621,1.589876E-09,0.001963694,3.974721E-09,2002.721,0.0054,0,0.0002696437,,
	05/31/2022 14:00:04.900,1.46441e+06,1937.55,168.00,6.00,-0.001059827,2.499986,-0.00264955,0.0005800846,0.000570452,0.001932002,0.001576644,1969.861,1937.153,0,98.33944,,
	05/31/2022 17:46:20.046,1.47799e+06,1940.85,172.00,5.00,0.001060124,3.500005,0.00371044,0.0005714412,1.884743E-09,0.001903188,4.711942E-09,1940.501,0.0064,0,0.0003298228,,
	05/31/2022 21:29:11.383,1.49136e+06,1889.97,175.00,6.00,-0.001060092,2.499982,-0.00265021,0.0005656618,0.0005564528,0.001883873,0.001538026,1920.878,1889.643,0,98.372,,
	06/01/2022 01:09:43.110,1.50459e+06,1892.05,179.00,5.00,0.001059869,3.500009,0.00370955,0.0005569615,2.620674E-09,0.001854994,6.551557E-09,1891.786,0.0089,0,0.0004705305,,
	06/01/2022 04:46:54.498,1.51762e+06,1839.66,182.00,6.00,-0.001060139,2.499988,-0.00265033,0.0005507944,0.0005416499,0.001834449,0.001496648,1870.712,1839.361,0,98.33978,,
	06/01/2022 08:21:46.225,1.53051e+06,1845.04,186.00,5.00,0.001059832,3.500001,0.00370941,0.0005431558,1.560393E-09,0.001808991,3.900907E-09,1844.724,0.0053,0,0.0002872828,,
	06/01/2022 11:53:40.833,1.54323e+06,1796.97,189.00,6.00,-0.001060142,2.499999,-0.00265035,0.0005378296,0.0005290789,0.001790839,0.001462577,1826.366,1796.666,0,98.37295,,
	06/01/2022 15:24:16.293,1.55586e+06,1804.16,193.00,5.00,0.001060144,3.50002,0.00371053,0.000531175,1.590178E-09,0.001768076,3.975621E-09,1803.851,0.0054,0,0.0002993699,,
	06/01/2022 18:51:45.897,1.56831e+06,1758.88,196.00,6.00,-0.001060142,2.499995,-0.00265035,0.0005268278,0.0005178764,0.001753469,0.001432123,1789.032,1758.637,0,98.30089,,
	06/01/2022 22:17:08.203,1.58063e+06,1766.44,200.00,5.00,0.00106013,3.500026,0.00371048,0.0005200809,2.06134E-09,0.001730854,5.15325E-09,1766.145,0.0057,0,0.0003963498,,
	06/01/2022 22:46:04.838,1.58237e+06,1736.61,200.00,6.00,-0.001060112,2.499991,-0.00265027,0.0005200821,0.0005113089,0.001730858,0.001414136,1766.149,1736.315,0,98.31311,,