Folder: ML-for-Si-Battery-Electrolyte/Cell-test-data/SiMP-LFP-PFF10

Note: README.md
# ML-for-Si-Battery-Electrolyte

File: JB6_SiMP-LFP-PFF10_03C_Channel_90_StatisticByCycle.CSV
Date_Time                    ,Test Time (s),Step Time (s),Cycle Index,Step Index,Current (A),Voltage (V),Power (W),Charge Capacity (Ah),Discharge Capacity (Ah),Charge Energy (Wh),Discharge Energy (Wh),Charge Time (s),Discharge Time (s),V_Max_On_Cycle (V),Coulombic Efficiency (%),mAh/g
	07/21/2022 14:52:25.310,173799,58330.5,1,3,-0.0001589939,2.499988,-0.000397483,0.003191481,0.002575822,0.01056915,0.007649166,72255.23,58320.84,0,80.7093,,
	07/24/2022 12:57:29.668,426104,6796.92,5,6,-0.001059885,2.499986,-0.0026497,0.002045604,0.002000783,0.00666891,0.005785109,6946.568,6795.877,0,97.8089,,
	07/25/2022 03:37:40.671,478915,6379.32,9,6,-0.00105991,2.499995,-0.00264977,0.001917215,0.001877908,0.006248438,0.005425892,6510.611,6378.366,0,97.94978,,
	07/25/2022 17:26:13.930,528628,6017.2,13,6,-0.001059917,2.499999,-0.00264979,0.001806425,0.001771271,0.005888653,0.005119642,6134.384,6016.281,0,98.05393,,
	07/26/2022 06:26:54.596,575469,5671.64,17,6,-0.001059928,2.499986,-0.00264981,0.001704192,0.001669629,0.005557583,0.004828202,5787.26,5670.815,0,97.9719,,
	07/26/2022 18:45:38.127,619792,5380.68,21,6,-0.001059906,2.499995,-0.00264976,0.001616491,0.001583938,0.005272884,0.004584507,5489.41,5379.858,0,97.98618,,
	07/27/2022 06:25:22.073,661776,5101.02,25,6,-0.001059949,2.499995,-0.00264987,0.001528549,0.001501675,0.004988566,0.004348034,5190.749,5100.279,0,98.24184,,
	07/27/2022 17:31:09.150,701723,4859.5,29,6,-0.001059845,2.499988,-0.0026496,0.001455897,0.001430542,0.004753313,0.004144898,4944.123,4858.754,0,98.25848,,
	07/28/2022 04:04:48.292,739742,4628.27,33,6,-0.001059934,2.499982,-0.00264982,0.001385252,0.001362529,0.00452431,0.003949146,4704.308,4627.653,0,98.35966,,
	07/28/2022 14:09:23.464,776018,4416.42,37,6,-0.001059867,2.499995,-0.00264966,0.001321942,0.001300095,0.004318963,0.003769128,4489.252,4415.835,0,98.34737,,
	07/28/2022 23:46:40.046,810654.117,4218.94,41,6,-0.001059943,2.49999,-0.00264985,0.001261841,0.001241992,0.004124433,0.003601612,4285.174,4218.393,0,98.42694,,
	07/29/2022 08:59:48.049,843842,4057,45,6,-0.001059956,2.499999,-0.00264989,0.001213319,0.001194351,0.003966484,0.003464936,4120.532,4056.411,0,98.43668,,
	07/29/2022 17:51:44.562,875759,3914.48,49,6,-0.001060168,2.499988,-0.00265041,0.001171341,0.001152311,0.003828865,0.003346171,3977.857,3913.943,0,98.37536,,
	07/30/2022 02:23:23.200,906457,3748.6,53,6,-0.001059903,2.499988,-0.00264974,0.001118375,0.001103512,0.003657648,0.003201872,3798.035,3748.099,0,98.67107,,
	07/30/2022 10:35:16.565,935971,3611.8,57,6,-0.001059987,2.499995,-0.00264996,0.001079757,0.001063274,0.003531622,0.003085973,3666.792,3611.305,0,98.47342,,
	07/30/2022 18:30:52.178,964506,3507.56,61,6,-0.001059867,2.499991,-0.00264966,0.00104744,0.001032506,0.00342558,0.002998356,3557.18,3507.054,0,98.5743,,
	07/31/2022 02:09:44.278,992038,3371.325,65,6,-0.001059892,2.499991,-0.00264972,0.001005831,0.0009924575,0.00329104,0.002880281,3415.782,3370.872,0,98.67039,,
	07/31/2022 09:33:57.639,1.01869e+06,3273.96,69,6,-0.001059958,2.499991,-0.00264989,0.000976227,0.0009638096,0.003194001,0.002797516,3315.25,3273.551,0,98.72802,,
	07/31/2022 16:44:37.782,1044531.853,3168.63,73,6,-0.001059884,2.499984,-0.00264969,0.0009455982,0.0009327753,0.003094576,0.002706933,3211.241,3168.199,0,98.64394,,
	07/31/2022 23:43:19.987,1.06965e+06,3087.22,77,6,-0.0010599,2.49998,-0.00264973,0.0009212935,0.0009087918,0.003014566,0.002637889,3128.756,3086.784,0,98.64304,,
	08/01/2022 06:29:40.409,1.09403e+06,2999.22,81,6,-0.001059885,2.49999,-0.0026497,0.0008934385,0.0008829302,0.002924064,0.002561997,3034.09,2998.832,0,98.82384,,
	08/01/2022 13:05:28.113,1.11778e+06,2925.97,85,6,-0.001059914,2.499986,-0.00264977,0.0008705716,0.000861323,0.002849339,0.002499438,2956.438,2925.575,0,98.93764,,
	08/01/2022 19:34:00.944,1141095.015,2879.01,89,6,-0.001059842,2.499997,-0.0026496,0.0008571081,0.0008475253,0.002804113,0.002461034,2910.702,2878.629,0,98.88195,,
	08/02/2022 01:55:49.940,1.164e+06,2826.7,93,6,-0.001059864,2.499999,-0.00264966,0.0008419704,0.0008322139,0.002753781,0.002417577,2859.257,2826.302,0,98.84122,,
	08/02/2022 08:09:58.661,1.18645e+06,2766.774,97,6,-0.001060168,2.499986,-0.00265041,0.0008242762,0.0008145929,0.002695451,0.002366705,2799.222,2766.381,0,98.82523,,
	08/02/2022 14:11:22.910,1.20814e+06,2661.59,101,6,-0.001059919,2.499997,-0.00264979,0.0007911968,0.0007835263,0.002589973,0.002272122,2686.776,2661.222,0,99.03053,,
	08/02/2022 20:03:47.258,1.22928e+06,2605.18,105,6,-0.001059892,2.499995,-0.00264972,0.0007757727,0.0007669097,0.002539389,0.002224062,2634.468,2604.833,0,98.85753,,
	08/03/2022 01:49:14.711,1250008.782,2555.81,109,6,-0.001059943,2.499993,-0.00264985,0.0007602786,0.000752388,0.002488465,0.002181603,2581.821,2555.472,0,98.96214,,
	08/03/2022 07:27:04.274,1270278.345,2501.32,113,6,-0.001059884,2.499993,-0.0026497,0.0007440069,0.0007363398,0.002435382,0.002134843,2526.644,2500.995,0,98.96948,,
	08/03/2022 12:58:23.050,1.29016e+06,2457.66,117,6,-0.001059856,2.499988,-0.00264963,0.0007306782,0.0007234535,0.002391768,0.002097753,2481.341,2457.307,0,99.01124,,
	08/03/2022 18:23:58.616,1.30969e+06,2404.33,121,6,-0.001059862,2.499982,-0.00264964,0.000715549,0.0007077886,0.002342226,0.00205137,2430.01,2404.011,0,98.91546,,
	08/03/2022 23:42:45.103,1.32882e+06,2367.15,125,6,-0.001060176,2.499976,-0.00265041,0.0007038225,0.0006968417,0.002303735,0.002020312,2390.137,2366.826,0,99.00816,,
	08/04/2022 04:57:14.530,1.34769e+06,2323.531,129,6,-0.001059906,2.499995,-0.00264976,0.0006909934,0.0006839872,0.002261653,0.001982278,2346.548,2323.211,0,98.98607,,
	08/04/2022 10:04:15.482,1.36611e+06,2274.22,133,6,-0.001059907,2.499978,-0.00264974,0.0006761847,0.0006694915,0.002213656,0.001939687,2296.257,2273.91,0,99.01015,,
	08/04/2022 15:06:41.034,1.38426e+06,2243.99,137,6,-0.001059894,2.499999,-0.00264973,0.0006673742,0.0006605661,0.002184252,0.001914258,2266.4,2243.668,0,98.97987,,
	08/04/2022 20:04:10.830,1.4021e+06,2208.09,141,6,-0.0010599,2.499993,-0.00264974,0.0006564672,0.0006499996,0.002148496,0.001883632,2229.311,2207.796,0,99.01479,,
	08/05/2022 00:56:43.644,1.41966e+06,2165.289,145,6,-0.00105987,2.499991,-0.00264967,0.0006436171,0.0006374114,0.002106747,0.001846261,2185.676,2165.004,0,99.0358,,
	08/05/2022 05:42:50.562,1436824.633,2121.68,149,6,-0.001059907,2.499995,-0.00264976,0.0006306361,0.0006245979,0.002064468,0.00180861,2141.651,2121.393,0,99.04253,,
	08/05/2022 10:24:13.222,1.45371e+06,2088.61,153,6,-0.001059859,2.499991,-0.00264964,0.0006205395,0.0006148358,0.002031498,0.00178021,2107.386,2088.325,0,99.08086,,
	08/05/2022 15:02:05.729,1.47038e+06,2070.8,157,6,-0.00105985,2.499986,-0.00264961,0.0006150027,0.000609618,0.002012771,0.001766118,2088.487,2070.495,0,99.12444,,
	08/05/2022 19:37:20.463,1.48689e+06,2042.67,161,6,-0.001060165,2.49999,-0.0026504,0.000607224,0.0006013248,0.001986878,0.001742395,2062.089,2042.422,0,99.0285,,
	08/06/2022 00:07:56.613,1.50313e+06,2005.17,165,6,-0.00105984,2.49999,-0.00264959,0.0005961721,0.0005902746,0.001950861,0.001709675,2024.524,2004.925,0,99.01077,,
	08/06/2022 04:32:46.723,1.51902e+06,1963.07,169,6,-0.001059861,2.499997,-0.00264965,0.0005822184,0.0005778872,0.00190565,0.00167287,1977.184,1962.809,0,99.25608,,
	08/06/2022 08:52:31.354,1.53461e+06,1922.769,173,6,-0.001059937,2.499995,-0.00264984,0.0005720549,0.0005660276,0.00187273,0.001637769,1942.655,1922.519,0,98.94638,,
	08/06/2022 13:07:28.535,1549902.606,1894.4,177,6,-0.00105984,2.499984,-0.00264958,0.0005626202,0.0005576669,0.001841844,0.001613632,1910.607,1894.169,0,99.1196,,
	08/06/2022 17:20:23.413,1.56508e+06,1885.11,181,6,-0.001059808,2.499978,-0.0026495,0.0005598248,0.0005549931,0.001831927,0.001606977,1901.142,1884.874,0,99.13694,,
	08/06/2022 21:30:55.480,1.58011e+06,1856.87,185,6,-0.00105988,2.499991,-0.00264969,0.000551981,0.0005466357,0.001806151,0.00158248,1874.449,1856.604,0,99.03162,,
	08/07/2022 01:36:34.934,1.59485e+06,1820.71,189,6,-0.001060129,2.499999,-0.00265032,0.0005403089,0.0005359791,0.001768323,0.001550746,1834.814,1820.437,0,99.19865,,
	08/07/2022 05:37:26.600,1.6093e+06,1786.84,193,6,-0.001059843,2.49998,-0.00264959,0.000530533,0.000525985,0.001736607,0.001521266,1801.611,1786.578,0,99.14274,,
	08/07/2022 09:34:19.754,1.62351e+06,1755.836,197,6,-0.001059892,2.49999,-0.00264972,0.0005215196,0.0005168607,0.001707364,0.001494202,1770.99,1755.556,0,99.10667,,
	08/07/2022 12:29:06.639,1.634e+06,1734.566,200,6,-0.001059889,2.499986,-0.00264971,0.0005148876,0.000510613,0.001685717,0.001476122,1748.509,1734.307,0,99.1698,,

File: JB6_SiMP-LFP-PFF10_03C_Channel_90_StatisticByStep.CSV
Date_Time                    ,Test Time (s),Step Time (s),Cycle Index,Step Index,Current (A),Voltage (V),Power (W),Charge Capacity (Ah),Discharge Capacity (Ah),Charge Energy (Wh),Discharge Energy (Wh),Charge Time (s),Discharge Time (s),V_Max_On_Cycle (V),Coulombic Efficiency (%),mAh/g
	07/20/2022 02:35:45.929,43200,43200,1.00,1.00,0,0.2375889,0,0,0,0,0,0,0,0,0,,
	07/24/2022 07:11:58.489,405373,7482.73,4.00,5.00,0.001060119,3.50002,0.00371044,0.002203156,4.284872E-10,0.007200997,1.07123E-09,7481.585,0.0085,0,1.944879E-05,,
	07/24/2022 20:24:41.533,452936,6589.78,7.00,6.00,-0.001059873,2.499978,-0.00264966,0.001982454,0.001939824,0.006459756,0.005606479,6732.228,6588.831,0,97.84966,,
	07/25/2022 08:54:49.526,497944,6325.4,11.00,5.00,0.001060125,3.500005,0.00371044,0.001862409,2.414238E-09,0.006069963,6.036155E-09,6324.475,0.007,0,0.0001296299,,
	07/25/2022 20:45:50.477,540605,5924.38,14.00,6.00,-0.001059906,2.499986,-0.00264975,0.001781903,0.001743979,0.005808407,0.005041273,6051.166,5923.476,0,97.87173,,
	07/26/2022 08:02:02.330,581176,5707.7,18.00,5.00,0.001060077,3.50001,0.00371028,0.001680494,1.207167E-09,0.005480615,3.017744E-09,5706.844,0.0041,0,7.183403E-05,,
	07/26/2022 18:45:38.127,619792,5380.68,21.00,6.00,-0.001059906,2.499995,-0.00264976,0.001616491,0.001583938,0.005272884,0.004584507,5489.41,5379.858,0,97.98618,,
	07/27/2022 05:00:21.031,656675,5191.53,25.00,5.00,0.001060073,3.500007,0.00371026,0.001528547,2.119974E-09,0.004988558,5.299539E-09,5190.741,0.0072,0,0.0001386921,,
	07/27/2022 14:47:44.698,691919,4913.26,28.00,6.00,-0.001059862,2.499999,-0.00264965,0.001474016,0.001446295,0.004812434,0.004189119,5005.601,4912.512,0,98.11939,,
	07/28/2022 00:11:16.000,725730,4764.68,32.00,5.00,0.001060097,3.500007,0.00371035,0.00140283,3.178987E-09,0.00458138,7.947636E-09,4763.951,0.0108,0,0.0002266125,,
	07/28/2022 09:10:37.457,758092,4525.4,35.00,6.00,-0.001060002,2.499991,-0.00265,0.001354,0.001332212,0.004422913,0.003861762,4598.175,4524.755,0,98.39088,,
	07/28/2022 17:49:21.611,789216,4393.78,39.00,5.00,0.001060107,3.500026,0.0037104,0.001293646,1.47227E-09,0.004227224,3.680528E-09,4393.111,0.005,0,0.0001138078,,
	07/29/2022 02:06:59.186,819073,4175.95,42.00,6.00,-0.001059937,2.499999,-0.00264984,0.001249253,0.001229343,0.004083447,0.003565334,4242.534,4175.379,0,98.40628,,
	07/29/2022 10:07:45.369,847919,4077.29,46.00,5.00,0.001060057,3.500014,0.00371021,0.001200441,2.739016E-09,0.003924534,6.847202E-09,4076.733,0.0093,0,0.0002281675,,
	07/29/2022 17:51:44.562,875759,3914.48,49.00,6.00,-0.001060168,2.499988,-0.00265041,0.001171341,0.001152311,0.003828865,0.003346171,3977.857,3913.943,0,98.37536,,
	07/30/2022 01:20:54.579,902709,3798.51,53.00,5.00,0.0010601,3.500012,0.00371036,0.001118373,3.267848E-09,0.003657643,8.1688E-09,3798.03,0.0111,0,0.0002921966,,
	07/30/2022 08:33:57.440,928692,3648.33,56.00,6.00,-0.001059926,2.499999,-0.00264981,0.001088925,0.001074007,0.003561903,0.003116805,3697.973,3647.819,0,98.63002,,
	07/30/2022 15:34:15.436,953910,3574.86,60.00,5.00,0.001060098,3.50001,0.00371035,0.001052504,1.471961E-09,0.003442805,3.679502E-09,3574.322,0.005,0,0.0001398532,,
	07/30/2022 22:22:31.808,978406,3431.97,63.00,6.00,-0.001059933,2.499995,-0.00264983,0.001023804,0.001010314,0.003349454,0.00293223,3476.833,3431.522,0,98.68238,,
	07/31/2022 04:58:11.536,1.00215e+06,3366.64,67.00,5.00,0.001060064,3.500016,0.00371024,0.000991185,3.298041E-09,0.003243086,8.244278E-09,3366.149,0.0112,0,0.0003327372,,
	07/31/2022 11:22:59.369,1.02523e+06,3249.19,70.00,6.00,-0.001059937,2.499995,-0.00264984,0.0009693878,0.0009565073,0.00317189,0.002776446,3292.015,3248.733,0,98.67126,,
	07/31/2022 17:37:44.078,1.04772e+06,3186.26,74.00,5.00,0.001060016,3.500018,0.00371008,0.0009380963,2.031524E-09,0.003070096,5.078733E-09,3185.808,0.0069,0,0.0002165582,,
	07/31/2022 23:43:19.987,1.06965e+06,3087.22,77.00,6.00,-0.0010599,2.49998,-0.00264973,0.0009212935,0.0009087918,0.003014566,0.002637889,3128.756,3086.784,0,98.64304,,
	08/01/2022 05:39:41.161,1.09104e+06,3034.5,81.00,5.00,0.001060058,3.500012,0.00371022,0.0008934368,2.856396E-09,0.002924058,7.140926E-09,3034.084,0.009699999,0,0.0003197087,,
	08/01/2022 11:27:25.236,1.1119e+06,2939.27,84.00,6.00,-0.001059905,2.499999,-0.00264976,0.0008757011,0.0008652459,0.002866214,0.002510582,2973.839,2938.856,0,98.80608,,
	08/01/2022 17:09:17.196,1.13241e+06,2928.04,88.00,5.00,0.001060069,3.50001,0.00371025,0.00086209,1.619417E-09,0.002820466,4.048299E-09,2927.639,0.0055,0,0.0001878477,,
	08/01/2022 22:45:46.617,1.1526e+06,2854.7,91.00,6.00,-0.001059894,2.499988,-0.00264972,0.0008493055,0.0008404449,0.002778191,0.00244108,2884.151,2854.303,0,98.95673,,
	08/02/2022 04:17:16.223,1.17249e+06,2829.45,95.00,5.00,0.001060102,3.500001,0.00371036,0.0008330817,4.034354E-09,0.002724488,1.008608E-08,2829.061,0.0137,0,0.0004842688,,
	08/02/2022 09:41:47.847,1.19196e+06,2737.43,98.00,6.00,-0.001059859,2.499976,-0.00264962,0.0008160814,0.0008058291,0.002669033,0.002339593,2771.336,2737.07,0,98.74371,,
	08/02/2022 14:56:00.605,1.21081e+06,2677.66,102.00,5.00,0.001060077,3.500009,0.00371028,0.0007883849,3.032638E-09,0.002580782,7.581434E-09,2677.27,0.0103,0,0.0003846646,,
	08/02/2022 20:03:47.258,1.22928e+06,2605.18,105.00,6.00,-0.001059892,2.499995,-0.00264972,0.0007757727,0.0007669097,0.002539389,0.002224062,2634.468,2604.833,0,98.85753,,
	08/03/2022 01:06:38.877,1.24745e+06,2582.19,109.00,5.00,0.001060105,3.500007,0.00371037,0.0007602773,1.707554E-09,0.00248846,4.26889E-09,2581.817,0.0058,0,0.0002245962,,
	08/03/2022 06:03:15.859,1.26525e+06,2514.22,112.00,6.00,-0.001059965,2.499999,-0.00264991,0.0007481327,0.0007401284,0.002449032,0.002145811,2540.658,2513.842,0,98.93009,,
	08/03/2022 10:54:59.925,1.28275e+06,2489.33,116.00,5.00,0.001060044,3.500001,0.00371016,0.0007329371,3.239025E-09,0.002399358,8.097391E-09,2489.014,0.011,0,0.000441924,,
	08/03/2022 15:42:11.343,1.29999e+06,2438.4,119.00,6.00,-0.001059875,2.499978,-0.00264966,0.0007255793,0.0007178084,0.002374573,0.002081609,2463.99,2438.093,0,98.92901,,
	08/03/2022 20:24:14.845,1.31691e+06,2404.38,123.00,5.00,0.001060084,3.500016,0.00371031,0.000707924,1.913758E-09,0.002317524,4.784418E-09,2404.031,0.0065,0,0.0002703338,,
	08/04/2022 01:01:55.462,1.33357e+06,2364.12,126.00,6.00,-0.00105985,2.499991,-0.00264962,0.0007025799,0.0006960056,0.002299318,0.002018425,2385.843,2363.785,0,99.06427,,
	08/04/2022 05:36:06.811,1.35002e+06,2332.25,130.00,5.00,0.00106005,3.500009,0.00371018,0.0006866767,2.502146E-09,0.002247747,6.254792E-09,2331.908,0.0085,0,0.0003643848,,
	08/04/2022 10:04:15.482,1.36611e+06,2274.22,133.00,6.00,-0.001059907,2.499978,-0.00264974,0.0006761847,0.0006694915,0.002213656,0.001939687,2296.257,2273.91,0,99.01015,,
	08/04/2022 14:29:17.019,1.38201e+06,2266.71,137.00,5.00,0.001060091,3.500007,0.00371033,0.0006673715,2.973751E-09,0.002184243,7.433598E-09,2266.391,0.0101,0,0.0004455916,,
	08/04/2022 18:50:13.094,1.39767e+06,2217.66,140.00,6.00,-0.001060034,2.499991,-0.00265008,0.0006586488,0.0006528139,0.002155651,0.001891796,2236.679,2217.344,0,99.11411,,
	08/04/2022 23:07:55.583,1.41313e+06,2200.34,144.00,5.00,0.001060073,3.500009,0.00371027,0.0006478358,2.384684E-09,0.002120427,5.961553E-09,2200.007,0.0081,0,0.0003681,,
	08/05/2022 03:20:27.483,1.42828e+06,2140.08,147.00,6.00,-0.001059894,2.499988,-0.00264972,0.0006356693,0.0006299859,0.002081012,0.001824262,2158.718,2139.783,0,99.10593,,
	08/05/2022 07:28:59.334,1.44319e+06,2124.7,151.00,5.00,0.001060086,3.500009,0.00371031,0.0006255519,2.679199E-09,0.002047946,6.697632E-09,2124.373,0.009099999,0,0.0004282937,,
	08/05/2022 11:33:50.388,1.45788e+06,2078.37,154.00,6.00,-0.00105982,2.499993,-0.00264954,0.0006179296,0.0006118171,0.002023051,0.001771396,2098.441,2078.085,0,99.01082,,
	08/05/2022 15:36:51.146,1.47247e+06,2085.39,158.00,5.00,0.001060125,3.500001,0.00371044,0.0006140068,2.561496E-09,0.002009361,6.403698E-09,2085.098,0.0087,0,0.0004171771,,
	08/05/2022 19:37:20.463,1.48689e+06,2042.67,161.00,6.00,-0.001060165,2.49999,-0.0026504,0.000607224,0.0006013248,0.001986878,0.001742395,2062.089,2042.422,0,99.0285,,
	08/05/2022 23:34:31.414,1.50113e+06,2024.82,165.00,5.00,0.001060111,3.500014,0.0037104,0.0005961698,1.442587E-09,0.001950853,3.606386E-09,2024.516,0.0049,0,0.0002419759,,
	08/06/2022 03:27:06.150,1.51508e+06,1969.47,168.00,6.00,-0.0010599,2.499957,-0.0026497,0.0005862029,0.0005797483,0.001918598,0.001678537,1990.726,1969.182,0,98.89892,,
	08/06/2022 07:15:50.244,1.5288e+06,1952.9,172.00,5.00,0.001060047,3.500003,0.00371017,0.0005750006,2.914756E-09,0.00188226,7.286638E-09,1952.64,0.0099,0,0.0005069135,,
	08/06/2022 11:00:27.909,1.54228e+06,1906.67,175.00,6.00,-0.001059868,2.499997,-0.00264967,0.0005664661,0.0005612569,0.001854575,0.0016239,1923.687,1906.376,0,99.08041,,
	08/06/2022 14:42:35.670,1.55561e+06,1906.86,179.00,5.00,0.001060075,3.500007,0.00371027,0.0005614332,3.180572E-09,0.001837632,7.951802E-09,1906.59,0.0098,0,0.0005665093,,
	08/06/2022 18:23:23.862,1.56886e+06,1883.03,182.00,6.00,-0.001060164,2.499988,-0.0026504,0.0005586374,0.0005543477,0.001827981,0.001605164,1897.107,1882.766,0,99.23211,,
	08/06/2022 22:02:00.709,1.58197e+06,1865.2,186.00,5.00,0.001059814,3.500026,0.00370938,0.000549168,1.560539E-09,0.001797006,3.901072E-09,1864.911,0.0053,0,0.0002841643,,
	08/07/2022 01:36:34.934,1.59485e+06,1820.71,189.00,6.00,-0.001060129,2.499999,-0.00265032,0.0005403089,0.0005359791,0.001768323,0.001550746,1834.814,1820.437,0,99.19865,,
	08/07/2022 05:07:39.732,1.60751e+06,1801.91,193.00,5.00,0.00106016,3.500014,0.00371057,0.0005305313,2.56184E-09,0.001736601,6.404117E-09,1801.606,0.0075,0,0.000482882,,
	08/07/2022 08:35:32.633,1.61999e+06,1764.53,196.00,6.00,-0.001059873,2.499978,-0.00264966,0.0005244985,0.0005194376,0.001716979,0.001501914,1781.13,1764.285,0,99.0351,,
	08/07/2022 12:00:12.049,1.63227e+06,1748.8,200.00,5.00,0.001060111,3.500016,0.00371041,0.0005148863,1.913546E-09,0.001685713,4.783703E-09,1748.505,0.0065,0,0.0003716444,,
	08/07/2022 12:29:06.639,1.634e+06,1734.57,200.00,6.00,-0.001059889,2.499986,-0.00264971,0.0005148876,0.000510613,0.001685717,0.001476122,1748.509,1734.307,0,99.1698,,