Folder: ML-for-Si-Battery-Electrolyte/Cell-test-data/SiMP-LFP-PS1

Note: README.md
# ML-for-Si-Battery-Electrolyte

File: JB3_SiMP-LFP-PS1_Channel_76_StatisticByCycle.CSV
Date_Time                    ,Test Time (s),Step Time (s),Cycle Index,Step Index,Current (A),Voltage (V),Power (W),Charge Capacity (Ah),Discharge Capacity (Ah),Charge Energy (Wh),Discharge Energy (Wh),Charge Time (s),Discharge Time (s),V_Max_On_Cycle (V),Coulombic Efficiency (%),mAh/g
	08/06/2022 15:17:07.282,177862.879,62145.4,1,3,-0.0001589981,2.499984,-0.000397493,0.00320236,0.002744475,0.01064497,0.008141295,72508.04,62137.39,0,85.70164,,
	08/10/2022 17:38:19.937,531936,7375.57,10,6,-0.00105991,2.499997,-0.00264977,0.002208734,0.002171329,0.007186027,0.006290721,7501.953,7374.602,0,98.3065,,
	08/12/2022 04:12:11.037,656367,6433.62,19,6,-0.001059996,2.499988,-0.00264998,0.0019293,0.001894064,0.006284509,0.00548952,6552.873,6432.787,0,98.17359,,
	08/13/2022 10:33:47.987,765663.584,5680.74,28,6,-0.001059915,2.499995,-0.00264978,0.001699159,0.001672374,0.005542797,0.004851767,5771.141,5679.978,0,98.42363,,
	08/14/2022 13:32:57.692,862813,5108.96,37,6,-0.001059975,2.49999,-0.00264993,0.001527224,0.001504071,0.004984254,0.004369887,5187.067,5108.325,0,98.48394,,
	08/15/2022 13:53:30.330,950446,4640.5,46,6,-0.001059938,2.499999,-0.00264984,0.001385773,0.001366114,0.00452474,0.003972396,4706.719,4639.874,0,98.58137,,
	08/16/2022 12:07:10.036,1030465.633,4221.29,55,6,-0.00105997,2.499995,-0.00264992,0.00125967,0.001242742,0.004116093,0.003612994,4278.512,4220.791,0,98.65617,,
	08/17/2022 08:30:29.506,1.10387e+06,3926.11,64,6,-0.001059891,2.499988,-0.00264971,0.001170704,0.001155746,0.003824721,0.00336451,3976.133,3925.615,0,98.7223,,
	08/18/2022 03:14:54.960,1.17133e+06,3589.08,73,6,-0.001059928,2.499982,-0.0026498,0.001067629,0.001056566,0.003492826,0.003070893,3626.166,3588.585,0,98.96377,,
	08/18/2022 20:35:30.146,1.23377e+06,3347.31,82,6,-0.001060005,2.499995,-0.00265001,0.0009960966,0.0009854389,0.003260095,0.002863725,3383.183,3346.863,0,98.93005,,
	08/19/2022 12:48:04.432,1.29212e+06,3144.13,91,6,-0.001059954,2.499993,-0.00264988,0.000934204,0.000925618,0.003058754,0.00268939,3173.031,3143.729,0,99.08093,,
	08/20/2022 04:05:30.947,1.34717e+06,2963.33,100,6,-0.001059994,2.499984,-0.00264997,0.0008801315,0.0008723889,0.002882412,0.002533922,2989.313,2962.923,0,99.12029,,
	08/20/2022 18:32:22.792,1.39918e+06,2808.96,109,6,-0.001059971,2.499991,-0.00264992,0.0008343012,0.0008269613,0.002733003,0.002401598,2833.673,2808.57,0,99.12024,,
	08/21/2022 08:14:53.494,1.44853e+06,2666.37,118,6,-0.001060045,2.499995,-0.00265011,0.0007916851,0.0007850152,0.002594131,0.002278831,2689.027,2666.019,0,99.1575,,
	08/21/2022 21:18:24.614,1.49554e+06,2544.85,127,6,-0.001059989,2.499976,-0.00264995,0.0007555,0.0007492225,0.002475976,0.002174482,2566.024,2544.52,0,99.16909,,
	08/22/2022 09:45:05.967,1.54034e+06,2431.17,136,6,-0.001060029,2.499995,-0.00265007,0.0007211529,0.0007157578,0.002364004,0.002076659,2449.439,2430.839,0,99.25188,,
	08/22/2022 21:43:02.062,1.58342e+06,2340.76,145,6,-0.001059971,2.499991,-0.00264992,0.0006941465,0.0006891299,0.002275477,0.001999452,2357.642,2340.483,0,99.2773,,
	08/23/2022 09:11:54.787,1.62475e+06,2245.356,154,6,-0.00106001,2.499982,-0.00265001,0.0006661195,0.0006610446,0.002184112,0.001917122,2262.496,2245.052,0,99.23814,,
	08/23/2022 20:15:20.875,1.66456e+06,2164.83,163,6,-0.001059971,2.499984,-0.00264991,0.0006418536,0.0006373169,0.002104723,0.001847976,2180.006,2164.52,0,99.29319,,
	08/24/2022 06:52:41.047,1702796.644,2080.82,172,6,-0.001060087,2.499982,-0.0026502,0.0006167754,0.0006126395,0.002023017,0.00177533,2094.961,2080.534,0,99.32944,,
	08/24/2022 17:09:14.163,1.73979e+06,2023.09,181,6,-0.001059948,2.499993,-0.00264986,0.0005995898,0.0005955925,0.001966477,0.001726308,2036.49,2022.821,0,99.33333,,
	08/25/2022 03:05:25.235,1.77556e+06,1948.19,190,6,-0.001060044,2.499995,-0.0026501,0.0005773089,0.0005735632,0.001893891,0.001661296,1960.833,1947.921,0,99.35117,,
	08/25/2022 12:42:30.398,1.81019e+06,1898.974,199,6,-0.001059933,2.499991,-0.00264982,0.0005621761,0.0005590625,0.0018443,0.001619549,1909.423,1898.728,0,99.44614,,
	08/25/2022 22:04:25.818,1.8439e+06,1838.21,208,6,-0.001060015,2.499988,-0.00265002,0.0005446504,0.0005411964,0.00178694,0.001566963,1849.937,1837.998,0,99.36583,,
	08/26/2022 07:07:38.568,1.87649e+06,1780.06,217,6,-0.001060033,2.49999,-0.00265007,0.0005274378,0.0005240915,0.001730737,0.001516809,1791.523,1779.841,0,99.36557,,
	08/26/2022 15:56:36.430,1.90823e+06,1741.68,226,6,-0.001059966,2.499999,-0.00264991,0.0005159716,0.0005127529,0.001692924,0.001484245,1752.472,1741.462,0,99.37618,,
	08/27/2022 00:31:33.432,1.93913e+06,1685.77,235,6,-0.001060066,2.499988,-0.00265015,0.0004994205,0.0004963092,0.001639029,0.001435642,1696.279,1685.534,0,99.37701,,
	08/27/2022 08:51:10.487,1.96911e+06,1641.1,244,6,-0.00106003,2.499972,-0.00265005,0.0004859898,0.0004831633,0.00159512,0.001397106,1650.703,1640.888,0,99.4184,,
	08/27/2022 16:59:14.836,1.99839e+06,1604.959,253,6,-0.001060031,2.499984,-0.00265006,0.0004752865,0.0004725063,0.001559954,0.001366249,1614.292,1604.77,0,99.41505,,
	08/28/2022 00:55:13.827,2026949.424,1562.265,262,6,-0.00106005,2.499988,-0.00265011,0.0004628615,0.0004599698,0.001519328,0.001329402,1572.139,1562.07,0,99.37527,,
	08/28/2022 08:38:47.438,2.05476e+06,1525.33,271,6,-0.001060108,2.499993,-0.00265026,0.000451588,0.0004491064,0.001482452,0.0012976,1533.851,1525.152,0,99.45048,,
	08/28/2022 16:12:46.500,2.082e+06,1495.47,280,6,-0.001059996,2.499991,-0.00264998,0.0004428235,0.0004402805,0.001453611,0.001272088,1504.067,1495.271,0,99.42574,,
	08/28/2022 23:36:46.700,2.10864e+06,1459.79,289,6,-0.001060058,2.499999,-0.00265014,0.0004322597,0.0004297929,0.001419037,0.00124135,1468.2,1459.601,0,99.42933,,
	08/29/2022 06:50:04.390,2.13464e+06,1424.83,298,6,-0.001060055,2.49998,-0.00265012,0.0004217395,0.0004195043,0.00138465,0.001211174,1432.49,1424.652,0,99.47001,,
	08/29/2022 13:54:37.781,2160113.378,1402.46,307,6,-0.001059961,2.49999,-0.00264989,0.0004149084,0.0004128903,0.001362138,0.001192204,1409.234,1402.292,0,99.5136,,
	08/29/2022 20:51:39.357,2.18513e+06,1371.08,316,6,-0.001060068,2.49999,-0.00265016,0.0004059058,0.0004036711,0.001332597,0.001165188,1378.675,1370.918,0,99.44946,,
	08/30/2022 03:38:43.309,2209558.906,1338.96,325,6,-0.001060128,2.499995,-0.00265031,0.0003964989,0.0003942099,0.001301844,0.001137409,1346.745,1338.764,0,99.4227,,
	08/30/2022 23:04:21.897,2.23346e+06,1308.16,334,6,-0.001060078,2.499997,-0.00265019,0.000387391,0.0003851265,0.001271797,0.001110907,1315.795,1307.923,0,99.41544,,
	08/31/2022 05:33:10.886,2.25679e+06,1280.85,343,6,-0.001060143,2.499972,-0.00265033,0.0003791576,0.0003771049,0.00124481,0.001087381,1287.858,1280.62,0,99.4586,,
	08/31/2022 11:54:51.537,2.27969e+06,1260.95,352,6,-0.001060031,2.499993,-0.00265007,0.000373183,0.0003712198,0.001225086,0.00107042,1267.525,1260.73,0,99.47393,,
	08/31/2022 18:11:38.345,2.3023e+06,1242.93,361,6,-0.001059963,2.499999,-0.00264991,0.0003679254,0.0003658997,0.001207677,0.001055143,1249.624,1242.715,0,99.44943,,
	09/01/2022 00:21:28.793,2.32449e+06,1219.09,370,6,-0.001059998,2.499991,-0.00264999,0.0003607917,0.0003588838,0.001184278,0.001034651,1225.417,1218.858,0,99.47117,,
	09/01/2022 06:24:11.972,2346250.374,1195.13,379,6,-0.001059977,2.499997,-0.00264994,0.0003536734,0.0003518295,0.00116094,0.001014003,1201.22,1194.925,0,99.47861,,
	09/01/2022 12:20:18.789,2.36762e+06,1173.81,388,6,-0.00106003,2.499999,-0.00265007,0.0003473897,0.0003455637,0.001140315,0.0009957405,1179.894,1173.611,0,99.47436,,
	09/01/2022 18:09:02.915,2.38854e+06,1148.444,397,6,-0.001060035,2.499999,-0.00265009,0.0003397955,0.0003381,0.001115492,0.0009738373,1154.136,1148.248,0,99.50104,,
	09/01/2022 23:51:20.174,2.40908e+06,1131.39,406,6,-0.001059943,2.499991,-0.00264985,0.0003347379,0.0003330605,0.001098817,0.0009592711,1136.898,1131.194,0,99.4989,,
	09/02/2022 05:28:03.048,2.42928e+06,1108.11,415,6,-0.00106003,2.499995,-0.00265007,0.0003278443,0.0003262271,0.001076294,0.0009392223,1113.527,1107.912,0,99.50673,,
	09/02/2022 10:58:14.362,2.44909e+06,1091.48,424,6,-0.001059994,2.499978,-0.00264996,0.0003227109,0.0003213207,0.001059433,0.0009249782,1096.096,1091.287,0,99.56921,,
	09/02/2022 16:24:47.266,2.46869e+06,1080.2,433,6,-0.001059917,2.499997,-0.00264979,0.000319656,0.0003179849,0.001049272,0.0009154939,1085.679,1080.025,0,99.4772,,
	09/02/2022 21:45:55.673,2.48795e+06,1060.04,442,6,-0.00105994,2.499995,-0.00264984,0.0003136011,0.0003120579,0.001029443,0.0008981596,1065.13,1059.86,0,99.50792,,
	09/03/2022 03:01:29.475,2.50689e+06,1041.48,451,6,-0.001059984,2.499991,-0.00264995,0.0003079511,0.0003066017,0.001010911,0.0008822097,1045.935,1041.299,0,99.56181,,
	09/03/2022 08:12:01.991,2.52552e+06,1025.69,460,6,-0.001059951,2.499976,-0.00264985,0.0003033203,0.0003019437,0.0009957248,0.0008686843,1030.203,1025.504,0,99.54614,,
	09/03/2022 13:17:57.487,2.54388e+06,1008.83,469,6,-0.001060021,2.499986,-0.00265004,0.0002984059,0.0002969937,0.0009795979,0.0008542357,1013.547,1008.665,0,99.52676,,
	09/03/2022 18:18:14.973,2.56189e+06,990.9922,478,6,-0.001060024,2.499997,-0.00265006,0.0002931198,0.0002917422,0.0009622852,0.0008389457,995.5875,990.8158,0,99.53002,,
	09/03/2022 23:13:49.216,2.57963e+06,977.4811,487,6,-0.001059963,2.499991,-0.0026499,0.0002890759,0.0002877631,0.0009489904,0.000827382,981.7979,977.3159,0,99.54587,,
	09/04/2022 04:06:08.153,2.59717e+06,968.2094,496,6,-0.001059926,2.49999,-0.0026498,0.0002863057,0.0002850148,0.0009398002,0.0008195339,972.3957,968.0429,0,99.54912,,
	09/04/2022 07:51:15.510,2.61067e+06,957.7438,503,6,-0.001059963,2.499995,-0.0026499,0.0002834057,0.0002819451,0.0009302564,0.0008106252,962.5499,957.5877,0,99.48463,,

File: JB3_SiMP-LFP-PS1_Channel_76_StatisticByStep.CSV
Date_Time                    ,Test Time (s),Step Time (s),Cycle Index,Step Index,Current (A),Voltage (V),Power (W),Charge Capacity (Ah),Discharge Capacity (Ah),Charge Energy (Wh),Discharge Energy (Wh),Charge Time (s),Discharge Time (s),V_Max_On_Cycle (V),Coulombic Efficiency (%),mAh/g
	08/05/2022 01:52:44.405,43200,43200,1.00,1.00,0,0.2528172,0,0,0,0,0,0,0,0,0,,
	08/10/2022 13:30:21.401,517057,7456.89,9.00,6.00,-0.001059987,2.499997,-0.00264996,0.002228945,0.002195285,0.007256016,0.006357646,7570.624,7455.924,0,98.48988,,
	08/12/2022 00:35:43.527,643379,6554.57,18.00,6.00,-0.001059961,2.499997,-0.0026499,0.00196669,0.001929637,0.006402823,0.005595214,6679.783,6553.649,0,98.11594,,
	08/13/2022 07:22:55.360,754211,5772.1,27.00,6.00,-0.001059987,2.499995,-0.00264996,0.001728282,0.001699288,0.005634972,0.00493148,5869.877,5771.375,0,98.32238,,
	08/14/2022 10:41:20.944,852517,5152.91,36.00,6.00,-0.001059924,2.49999,-0.0026498,0.00153826,0.001516931,0.005021865,0.004405093,5224.648,5152.198,0,98.61342,,
	08/15/2022 11:17:42.367,941098,4685.76,45.00,6.00,-0.001059934,2.499997,-0.00264983,0.001397305,0.001379438,0.004563135,0.00401064,4745.889,4685.161,0,98.72131,,
	08/16/2022 09:45:29.644,1.02197e+06,4288.58,54.00,6.00,-0.001059971,2.499995,-0.00264992,0.00128155,0.001262541,0.004185023,0.003672956,4352.648,4288.035,0,98.51669,,
	08/17/2022 06:18:46.695,1.09596e+06,3964.4,63.00,6.00,-0.001059914,2.499997,-0.00264978,0.001181639,0.001167002,0.003860374,0.003397538,4013.226,3963.795,0,98.76131,,
	08/18/2022 01:14:39.189,1.16411e+06,3611.23,72.00,6.00,-0.001059968,2.499999,-0.00264992,0.001074633,0.001063124,0.003516004,0.003089446,3649.913,3610.781,0,98.92907,,
	08/18/2022 18:43:19.146,1.22703e+06,3374.84,81.00,6.00,-0.00105997,2.499997,-0.00264992,0.001003535,0.0009935222,0.003284203,0.002887399,3408.504,3374.384,0,99.00225,,
	08/19/2022 11:02:46.792,1.2858e+06,3158.76,90.00,6.00,-0.001059975,2.499993,-0.00264993,0.0009386511,0.0009299635,0.003073472,0.002701353,3188.217,3158.341,0,99.07446,,
	08/20/2022 02:26:17.827,1.34121e+06,2980.51,99.00,6.00,-0.001059971,2.499993,-0.00264992,0.0008859303,0.0008774515,0.002901355,0.002548703,3009.003,2980.119,0,99.04295,,
	08/20/2022 16:58:19.700,1.39354e+06,2824.78,108.00,6.00,-0.001059947,2.499995,-0.00264986,0.0008390304,0.0008316056,0.002748471,0.002415104,2849.712,2824.402,0,99.11508,,
	08/21/2022 06:45:37.672,1.44317e+06,2681.23,117.00,6.00,-0.001059985,2.499976,-0.00264994,0.0007961497,0.0007894026,0.002608698,0.002291576,2704.214,2680.891,0,99.15253,,
	08/21/2022 19:53:13.356,1.49043e+06,2559.51,126.00,6.00,-0.001060005,2.499999,-0.00265001,0.0007600012,0.0007535198,0.00249063,0.002187109,2581.288,2559.16,0,99.14718,,
	08/22/2022 08:23:44.957,1.53546e+06,2441.3,135.00,6.00,-0.001060017,2.499997,-0.00265004,0.0007243634,0.0007187616,0.002374559,0.00208529,2460.358,2440.973,0,99.22665,,
	08/22/2022 20:24:43.307,1.57872e+06,2350.25,144.00,6.00,-0.001059985,2.499978,-0.00264994,0.0006971305,0.0006919115,0.002285252,0.002007548,2367.752,2349.977,0,99.25136,,
	08/23/2022 07:56:46.578,1.62024e+06,2255.82,153.00,6.00,-0.001060022,2.499999,-0.00265005,0.00066884,0.0006641308,0.002193001,0.001926068,2271.721,2255.51,0,99.29591,,
	08/23/2022 19:02:55.686,1.66021e+06,2174.08,162.00,6.00,-0.001059996,2.49999,-0.00264998,0.0006449188,0.0006400361,0.002114731,0.001855953,2190.43,2173.777,0,99.2429,,
	08/24/2022 05:43:04.929,1.69862e+06,2088.9,171.00,6.00,-0.00106007,2.499999,-0.00265017,0.0006193444,0.000615013,0.002031407,0.001782281,2103.67,2088.627,0,99.30066,,
	08/24/2022 16:01:34.220,1.73573e+06,2031.32,180.00,6.00,-0.001060013,2.499991,-0.00265002,0.0006021712,0.0005980175,0.00197488,0.001733459,2045.269,2031.031,0,99.3102,,
	08/25/2022 02:00:15.882,1.77165e+06,1955.55,189.00,6.00,-0.001060002,2.499988,-0.00264999,0.0005794798,0.000575744,0.001900976,0.001667694,1968.23,1955.302,0,99.35532,,
	08/25/2022 11:39:01.708,1.80638e+06,1900.55,198.00,6.00,-0.001059962,2.499993,-0.0026499,0.0005630049,0.0005595268,0.001847072,0.001620604,1912.275,1900.321,0,99.38222,,
	08/25/2022 21:02:57.373,1.84021e+06,1845.12,207.00,6.00,-0.00106001,2.499999,-0.00265002,0.0005466448,0.0005432206,0.001793421,0.00157295,1856.695,1844.885,0,99.37359,,
	08/26/2022 06:08:06.681,1.87292e+06,1785.23,216.00,6.00,-0.001060052,2.499993,-0.00265012,0.000528828,0.0005256124,0.001735375,0.001521175,1796.233,1784.984,0,99.39194,,
	08/26/2022 14:58:21.996,1.90474e+06,1746.63,225.00,6.00,-0.001059979,2.499997,-0.00264994,0.0005172213,0.0005142071,0.001697066,0.001488436,1756.726,1746.397,0,99.41724,,
	08/26/2022 23:35:11.102,1.93575e+06,1691.89,234.00,6.00,-0.001060047,2.499995,-0.00265011,0.0005011164,0.0004981053,0.001644554,0.001440893,1702.052,1691.639,0,99.39911,,
	08/27/2022 07:56:18.423,1.96581e+06,1645.13,243.00,6.00,-0.001060057,2.499982,-0.00265012,0.0004870027,0.0004843682,0.001598459,0.001400606,1654.152,1644.935,0,99.45902,,
	08/27/2022 16:05:35.323,1.99517e+06,1609.55,252.00,6.00,-0.001059973,2.499995,-0.00264993,0.0004766306,0.0004738498,0.00156435,0.001370195,1618.856,1609.322,0,99.41656,,
	08/28/2022 00:02:59.171,2.02381e+06,1567.86,261.00,6.00,-0.001060029,2.499999,-0.00265007,0.0004640374,0.0004616179,0.001523158,0.001334245,1576.139,1567.67,0,99.47858,,
	08/28/2022 07:47:48.000,2.0517e+06,1528.33,270.00,6.00,-0.001059993,2.499999,-0.00264998,0.0004524468,0.0004499721,0.001485294,0.00130009,1536.773,1528.139,0,99.45304,,
	08/28/2022 15:22:46.713,2.079e+06,1499.98,279.00,6.00,-0.00105998,2.499997,-0.00264995,0.000444022,0.0004416065,0.001457538,0.001275978,1508.094,1499.796,0,99.456,,
	08/28/2022 22:47:58.468,2.10571e+06,1463.99,288.00,6.00,-0.001060022,2.499978,-0.00265003,0.0004334109,0.0004310147,0.001422819,0.001244918,1472.093,1463.794,0,99.44712,,
	08/29/2022 06:02:26.840,2.13178e+06,1428.37,297.00,6.00,-0.001060043,2.499991,-0.0026501,0.0004228933,0.000420549,0.001388434,0.001214218,1436.38,1428.212,0,99.44566,,
	08/29/2022 13:07:45.848,2.1573e+06,1403.2,306.00,6.00,-0.001059993,2.499986,-0.00264997,0.0004153917,0.0004131082,0.001363721,0.001192735,1410.881,1403.007,0,99.45029,,
	08/29/2022 20:05:49.372,2.18238e+06,1375.14,315.00,6.00,-0.001060024,2.49999,-0.00265005,0.0004069747,0.0004048565,0.001336081,0.001168673,1382.288,1374.958,0,99.47952,,
	08/30/2022 02:53:57.367,2.20687e+06,1343.01,324.00,6.00,-0.001060073,2.499988,-0.00265017,0.0003974475,0.0003954094,0.001304951,0.001140917,1349.953,1342.833,0,99.48722,,
	08/30/2022 22:20:37.660,2.23084e+06,1311.9,333.00,6.00,-0.001060054,2.499997,-0.00265013,0.0003884111,0.0003862301,0.001275167,0.001114165,1319.231,1311.673,0,99.43848,,
	08/31/2022 04:50:21.881,2.25422e+06,1283.81,342.00,6.00,-0.001060105,2.499995,-0.00265026,0.0003798554,0.0003779703,0.001247091,0.001089916,1290.226,1283.571,0,99.50372,,
	08/31/2022 11:12:42.795,2.27716e+06,1262.82,351.00,6.00,-0.001060035,2.499997,-0.00265008,0.0003736072,0.0003717746,0.001226515,0.001072018,1268.95,1262.599,0,99.50949,,
	08/31/2022 17:30:05.499,2.2998e+06,1245.63,360.00,6.00,-0.001059963,2.499999,-0.00264991,0.0003686794,0.0003666977,0.001210148,0.001057429,1252.183,1245.412,0,99.46248,,
	08/31/2022 23:40:44.018,2.32204e+06,1221.72,369.00,6.00,-0.001059959,2.499984,-0.00264988,0.0003615529,0.0003596674,0.00118677,0.001036929,1227.988,1221.513,0,99.47851,,
	09/01/2022 05:44:15.340,2.34385e+06,1197.95,378.00,6.00,-0.001060008,2.499982,-0.00265,0.00035453,0.0003526631,0.001163728,0.001016448,1204.115,1197.738,0,99.47342,,
	09/01/2022 11:41:04.823,2.36526e+06,1177.22,387.00,6.00,-0.001059951,2.499999,-0.00264988,0.0003484362,0.0003465565,0.001143714,0.0009986705,1183.445,1177.02,0,99.46052,,
	09/01/2022 17:30:40.079,2.38624e+06,1150.94,396.00,6.00,-0.001059994,2.499988,-0.00264997,0.0003406146,0.0003388296,0.001118165,0.0009759698,1156.911,1150.732,0,99.47595,,
	09/01/2022 23:13:31.627,2.40681e+06,1133.22,405.00,6.00,-0.001059945,2.499999,-0.00264986,0.0003352712,0.0003336064,0.001100591,0.000960843,1138.746,1133.026,0,99.50347,,
	09/02/2022 04:51:01.168,2.42706e+06,1110.31,414.00,6.00,-0.001060016,2.499999,-0.00265004,0.0003285429,0.0003268738,0.001078574,0.0009411103,1115.9,1110.113,0,99.49195,,
	09/02/2022 10:21:46.538,2.4469e+06,1092.43,423.00,6.00,-0.001060003,2.499978,-0.00264998,0.0003231176,0.0003216131,0.001060773,0.0009258109,1097.511,1092.237,0,99.53439,,
	09/02/2022 15:48:41.129,2.46652e+06,1082.23,432.00,6.00,-0.001059921,2.499999,-0.0026498,0.0003200853,0.0003185873,0.001050687,0.0009172418,1087.138,1082.049,0,99.53201,,
	09/02/2022 21:10:30.271,2.48583e+06,1061.8,441.00,6.00,-0.001059991,2.499991,-0.00264997,0.0003140598,0.000312577,0.00103095,0.0008996647,1066.673,1061.616,0,99.52785,,
	09/03/2022 02:26:41.812,2.5048e+06,1042.89,450.00,6.00,-0.001059993,2.499995,-0.00264998,0.000308637,0.0003070176,0.001013179,0.0008834251,1048.287,1042.719,0,99.47528,,
	09/03/2022 07:37:45.861,2.52346e+06,1027.34,459.00,6.00,-0.001059996,2.499997,-0.00264999,0.0003040182,0.0003024386,0.0009979986,0.0008701285,1032.577,1027.165,0,99.48042,,
	09/03/2022 12:44:14.873,2.54185e+06,1010.87,468.00,6.00,-0.001060003,2.499991,-0.00265,0.000299103,0.0002975907,0.0009818707,0.0008560018,1015.915,1010.695,0,99.49438,,
	09/03/2022 17:45:08.174,2.55991e+06,992.5746,477.00,6.00,-0.001060007,2.499991,-0.00265001,0.0002935895,0.0002922157,0.0009638268,0.0008403055,997.1829,992.409,0,99.53206,,
	09/03/2022 22:41:09.710,2.57767e+06,978.8407,486.00,6.00,-0.001059989,2.499995,-0.00264997,0.0002895428,0.0002881606,0.0009505315,0.0008285345,983.4147,978.6751,0,99.52263,,
	09/04/2022 03:33:47.322,2.59523e+06,969.1576,495.00,6.00,-0.00105991,2.499997,-0.00264977,0.0002866088,0.0002853007,0.0009408107,0.0008203515,973.4237,968.9995,0,99.54357,,
	09/04/2022 07:51:15.510,2.61067e+06,957.7438,503.00,6.00,-0.001059963,2.499995,-0.0026499,0.0002834057,0.0002819451,0.0009302564,0.0008106252,962.5499,957.5877,0,99.48463,,