Folder: ML-for-Si-Battery-Electrolyte/Cell-test-data/SiMP-LFP-SS1

Note: README.md
# ML-for-Si-Battery-Electrolyte

File: JB2_SiMP-LFP-SS1_Channel_72_StatisticByCycle.CSV
Date_Time                    ,Test Time (s),Step Time (s),Cycle Index,Step Index,Current (A),Voltage (V),Power (W),Charge Capacity (Ah),Discharge Capacity (Ah),Charge Energy (Wh),Discharge Energy (Wh),Charge Time (s),Discharge Time (s),V_Max_On_Cycle (V),Coulombic Efficiency (%),mAh/g
	08/06/2022 13:05:05.031,169868,58195.7,1,3,-0.0001590149,2.499973,-0.000397533,0.003023799,0.002569857,0.0100739,0.007615788,68462.13,58186.91,0,84.9877,,
	08/10/2022 06:39:09.208,492312,6196.43,10,6,-0.001060033,2.499989,-0.00265007,0.00186692,0.001824252,0.006119766,0.005283602,6340.694,6195.551,0,97.71454,,
	08/11/2022 11:20:00.532,595564,5235.86,19,6,-0.001059966,2.499996,-0.00264991,0.001574316,0.001541411,0.005172416,0.004469616,5346.872,5235.048,0,97.90987,,
	08/12/2022 11:46:12.711,683536,4501.91,28,6,-0.001059969,2.49999,-0.00264991,0.001349878,0.001325328,0.004443567,0.00384662,4584.628,4501.223,0,98.18136,,
	08/13/2022 09:02:45.121,760128,3944.27,37,6,-0.001059991,2.499994,-0.00264997,0.0011831,0.001161179,0.003898748,0.00337237,4018.127,3943.673,0,98.1471,,
	08/14/2022 03:45:01.619,827465,3509.602,46,6,-0.00105996,2.499992,-0.00264989,0.001050239,0.001033193,0.003464766,0.003001383,3566.808,3509.072,0,98.37691,,
	08/14/2022 20:22:21.271,887304,3148.97,55,6,-0.001059927,2.499992,-0.00264981,0.0009399613,0.0009270443,0.003104634,0.002691892,3192.367,3148.494,0,98.62579,,
	08/15/2022 11:28:33.155,941676,2873.5,64,6,-0.001059879,2.49999,-0.00264969,0.0008575801,0.0008459378,0.002833633,0.002456597,2912.522,2873.067,0,98.64242,,
	08/16/2022 01:12:30.106,991113,2641.09,73,6,-0.001059857,2.499989,-0.00264963,0.0007872968,0.000777462,0.002602598,0.002257186,2673.792,2640.686,0,98.75081,,
	08/16/2022 13:51:37.654,1.03666e+06,2396.23,82,6,-0.001060006,2.499996,-0.00265001,0.0007144556,0.0007054303,0.002364229,0.00204441,2426.515,2395.846,0,98.73677,,
	08/17/2022 01:28:10.290,1.07845e+06,2256.596,91,6,-0.001059894,2.499992,-0.00264973,0.000672081,0.0006642892,0.002223988,0.001926066,2282.479,2256.284,0,98.84064,,
	08/17/2022 12:22:44.113,1.11773e+06,2096.49,100,6,-0.001059828,2.499992,-0.00264956,0.0006240635,0.0006171616,0.00206592,0.001787616,2119.487,2096.174,0,98.89404,,
	08/17/2022 22:23:07.687,1.15375e+06,1910.29,109,6,-0.001059934,2.499998,-0.00264983,0.0005676936,0.0005623937,0.001881879,0.001624786,1928.076,1909.998,0,99.06642,,
	08/18/2022 07:39:27.213,1.18713e+06,1793.45,118,6,-0.001059991,2.499973,-0.00264995,0.0005326818,0.0005279896,0.001766365,0.001524087,1809.151,1793.189,0,99.11914,,
	08/18/2022 16:23:19.772,1.21856e+06,1695.65,127,6,-0.001060024,2.499996,-0.00265006,0.0005036354,0.0004991863,0.001670488,0.00143993,1710.425,1695.407,0,99.11662,,
	08/19/2022 00:39:10.358,1.24831e+06,1604.38,136,6,-0.001060094,2.49999,-0.00265022,0.0004765051,0.0004723599,0.001580911,0.001361365,1618.358,1604.163,0,99.1301,,
	08/19/2022 08:29:08.444,1.27651e+06,1526.698,145,6,-0.001060033,2.49999,-0.00265007,0.0004529868,0.000449472,0.001503187,0.001294469,1538.558,1526.455,0,99.22409,,
	08/19/2022 15:57:43.682,1.30343e+06,1459.49,154,6,-0.00105996,2.499987,-0.00264989,0.0004331685,0.0004296726,0.001437602,0.001236688,1471.096,1459.269,0,99.19294,,
	08/19/2022 23:06:20.424,1.32914e+06,1394.27,163,6,-0.001060019,2.499933,-0.00264998,0.0004137137,0.0004104967,0.001373252,0.001180615,1405.116,1394.068,0,99.22241,,
	08/20/2022 05:56:26.239,1.35375e+06,1337.3,172,6,-0.001060025,2.499981,-0.00265004,0.0003963734,0.0003937226,0.001315846,0.001131645,1346.176,1337.121,0,99.33121,,
	08/20/2022 12:30:22.519,1.37739e+06,1286.76,181,6,-0.001060015,2.499981,-0.00265002,0.0003813199,0.0003788089,0.001265937,0.001088021,1295.079,1286.549,0,99.34151,,
	08/20/2022 18:49:18.123,1.40012e+06,1238.1,190,6,-0.001060147,2.499983,-0.00265035,0.0003667646,0.0003645308,0.00121775,0.001046386,1245.622,1237.945,0,99.39094,,
	08/21/2022 00:54:31.794,1.42203e+06,1194.32,199,6,-0.00105995,2.5,-0.002649875,0.0003539394,0.0003515986,0.001175276,0.001008715,1202.124,1194.146,0,99.33866,,
	08/21/2022 06:46:27.100,1.44315e+06,1150.43,208,6,-0.001060151,2.499996,-0.00265037,0.0003409366,0.0003387118,0.001132221,0.0009711768,1157.934,1150.27,0,99.34745,,
	08/21/2022 12:26:30.842,1.46355e+06,1115.352,217,6,-0.001060001,2.5,-0.00265,0.0003304995,0.0003283499,0.001097581,0.0009410135,1122.447,1115.172,0,99.34959,,
	08/21/2022 17:56:05.785,1.48333e+06,1079.491,226,6,-0.001060041,2.499968,-0.00265007,0.0003197485,0.0003178027,0.001061918,0.0009103419,1085.944,1079.345,0,99.39146,,
	08/21/2022 23:15:10.497,1.50247e+06,1044.96,235,6,-0.001060044,2.49999,-0.0026501,0.0003096159,0.0003076604,0.001028304,0.0008808505,1051.548,1044.795,0,99.36839,,
	08/22/2022 04:24:42.488,1.52105e+06,1015.19,244,6,-0.0010601,2.499983,-0.00265023,0.0003006425,0.0002988921,0.0009985189,0.0008553258,1021.154,1015.043,0,99.41777,,
	08/22/2022 09:25:29.475,1.53909e+06,987.9315,253,6,-0.001060069,2.499992,-0.00265016,0.0002926793,0.0002908685,0.0009721015,0.0008320664,994.1128,987.7716,0,99.38132,,
	08/22/2022 14:18:38.275,1.55668e+06,963.29,262,6,-0.00105998,2.499973,-0.00264992,0.0002851615,0.0002835943,0.0009470969,0.0008109414,968.4366,963.1545,0,99.45043,,
	08/22/2022 19:04:11.195,1.57381e+06,937.1838,271,6,-0.001060027,2.499985,-0.00265005,0.0002774727,0.0002759198,0.0009215771,0.0007886895,942.4248,937.045,0,99.44035,,
	08/22/2022 23:42:19.061,1.5905e+06,914.2075,280,6,-0.001059962,2.499964,-0.00264987,0.0002707298,0.0002691354,0.0008991591,0.0007690361,919.4302,914.0605,0,99.41106,,
	08/23/2022 04:13:44.859,1.60679e+06,892.0272,289,6,-0.001060078,2.499962,-0.00265015,0.0002640439,0.0002626176,0.000876983,0.0007501065,896.7609,891.8984,0,99.45982,,
	08/23/2022 08:38:14.464,1.62266e+06,868.8432,298,6,-0.00106005,2.499981,-0.0026501,0.0002572877,0.0002558037,0.0008545216,0.0007303962,873.8378,868.7168,0,99.42323,,
	08/23/2022 12:56:41.293,1.63816e+06,850.653,307,6,-0.001060038,2.499992,-0.00265009,0.0002519084,0.0002504291,0.0008366599,0.0007148488,855.5771,850.5085,0,99.41274,,
	08/23/2022 17:09:06.601,1.65331e+06,830.3706,316,6,-0.001059948,2.499994,-0.00264986,0.0002456997,0.0002444671,0.0008160209,0.0006976121,834.5318,830.2543,0,99.49837,,
	08/23/2022 21:15:38.327,1.6681e+06,810.8924,325,6,-0.001060006,2.499977,-0.00264999,0.0002400679,0.0002387246,0.000797312,0.0006810084,815.3621,810.7512,0,99.44045,,
	08/24/2022 01:16:11.699,1.68253e+06,791.3117,334,6,-0.001060072,2.499998,-0.00265018,0.0002342001,0.0002329782,0.0007778215,0.0006643718,795.4618,791.185,0,99.47829,,
	08/24/2022 05:11:17.039,1.69664e+06,774.1267,343,6,-0.001060083,2.499996,-0.0026502,0.0002290533,0.0002279226,0.0007607221,0.000649804,777.9807,774.0098,0,99.50636,,
	08/24/2022 09:01:31.739,1.71045e+06,758.6568,352,6,-0.001060107,2.5,-0.00265027,0.0002245647,0.0002233747,0.000745807,0.000636635,762.686,758.5552,0,99.47008,,
	08/24/2022 12:47:29.501,1.72401e+06,746.3239,361,6,-0.001059991,2.499994,-0.00264997,0.0002209953,0.0002197112,0.0007339009,0.0006261287,750.5745,746.2114,0,99.41896,,
	08/24/2022 16:29:48.423,1.73735e+06,733.1053,370,6,-0.001059994,2.499981,-0.00264996,0.0002169529,0.0002158328,0.0007204493,0.0006149569,736.8,733.0235,0,99.48375,,
	08/24/2022 20:07:47.548,1.75043e+06,718.4618,379,6,-0.001059932,2.499987,-0.00264982,0.0002127646,0.0002115131,0.0007065432,0.0006025212,722.6433,718.363,0,99.4118,,
	08/24/2022 23:41:18.806,1.76324e+06,703.3418,388,6,-0.001060049,2.5,-0.00265012,0.0002082229,0.0002070808,0.0006914436,0.0005897277,707.243,703.2351,0,99.45151,,
	08/25/2022 03:10:29.824,1.77579e+06,689.7294,397,6,-0.001060047,2.499989,-0.00265011,0.0002040843,0.000203063,0.0006776534,0.0005781461,693.1325,689.6292,0,99.49957,,
	08/25/2022 06:35:55.236,1.78812e+06,678.1943,406,6,-0.001060059,2.499998,-0.00265015,0.0002006899,0.0001996788,0.0006663976,0.0005684291,681.6613,678.0892,0,99.4962,,
	08/25/2022 09:58:01.008,1.80024e+06,667.4533,415,6,-0.001060068,2.499977,-0.00265015,0.0001975624,0.0001965026,0.0006559672,0.000559291,670.964,667.36,0,99.46354,,
	08/25/2022 13:17:33.452,1.81222e+06,659.8661,424,6,-0.001059938,2.499981,-0.00264982,0.0001952743,0.0001942434,0.0006483538,0.0005527815,663.1329,659.7431,0,99.47205,,
	08/25/2022 16:34:18.971,1.82402e+06,649.0236,433,6,-0.001059897,2.49999,-0.00264973,0.0001920344,0.000191054,0.0006375646,0.000543621,652.1558,648.9097,0,99.48948,,
	08/25/2022 19:47:24.996,1.83561e+06,636.3771,442,6,-0.001059883,2.499996,-0.0026497,0.0001883189,0.0001873244,0.0006251999,0.0005328996,639.5515,636.2245,0,99.47195,,
	08/25/2022 22:57:04.038,1.84699e+06,625.2545,451,6,-0.001059973,2.499954,-0.00264988,0.0001849944,0.0001840691,0.0006141397,0.0005235676,628.2678,625.1509,0,99.49982,,
	08/26/2022 02:03:30.336,1.85817e+06,615.1774,460,6,-0.001060103,2.499983,-0.00265024,0.0001821239,0.0001811287,0.0006045895,0.0005151324,618.5817,615.1007,0,99.45358,,
	08/26/2022 05:06:51.708,1.86917e+06,604.9229,469,6,-0.001060114,2.499998,-0.00265028,0.0001790418,0.0001781153,0.0005943284,0.0005064618,608.0956,604.8587,0,99.48251,,
	08/26/2022 08:07:19.995,1.88e+06,596.5995,478,6,-0.001060013,2.499969,-0.00265,0.0001765145,0.0001756484,0.0005859191,0.000499383,599.4678,596.5277,0,99.50935,,
	08/26/2022 11:05:26.009,1.89069e+06,588.7444,487,6,-0.00106004,2.499996,-0.0026501,0.0001743264,0.0001733401,0.0005786228,0.0004927839,592.0732,588.6725,0,99.4342,,
	08/26/2022 14:01:26.236,1901249.423,581.9567,496,6,-0.001059997,2.499983,-0.00264997,0.0001721207,0.0001713298,0.0005712949,0.0004869858,584.5621,581.8842,0,99.54048,,
	08/26/2022 16:17:01.424,1.90938e+06,577.1473,503,6,-0.001059948,2.499998,-0.00264987,0.0001707968,0.0001699069,0.0005668911,0.0004829258,580.0338,577.082,0,99.47899,,

File: JB2_SiMP-LFP-SS1_Channel_72_StatisticByStep.CSV
Date_Time                    ,Test Time (s),Step Time (s),Cycle Index,Step Index,Current (A),Voltage (V),Power (W),Charge Capacity (Ah),Discharge Capacity (Ah),Charge Energy (Wh),Discharge Energy (Wh),Charge Time (s),Discharge Time (s),V_Max_On_Cycle (V),Coulombic Efficiency (%),mAh/g
	08/05/2022 01:53:56.815,43200,43200,1.00,1.00,0,0.1817322,0,0,0,0,0,0,0,0,0,,
	08/10/2022 03:10:11.108,479774,6330.76,9.00,6.00,-0.001059996,2.5,-0.00264999,0.001907817,0.001863775,0.006251357,0.00539905,6479.546,6329.822,0,97.69148,,
	08/11/2022 08:23:36.891,584980,5348.39,18.00,6.00,-0.001060059,2.499994,-0.00265014,0.001610744,0.001574596,0.005288942,0.004567363,5470.539,5347.568,0,97.75583,,
	08/12/2022 09:14:45.415,674449,4568.95,27.00,6.00,-0.001060102,2.499964,-0.00265022,0.00137132,0.00134519,0.004513034,0.003903706,4657.439,4568.255,0,98.09456,,
	08/13/2022 06:50:02.075,752165,4017.86,36.00,6.00,-0.001060043,2.499987,-0.00265009,0.001204359,0.001182831,0.003967649,0.003436798,4090.234,4017.262,0,98.21248,,
	08/14/2022 01:47:04.635,820388,3558.53,45.00,6.00,-0.001059941,2.49999,-0.00264984,0.001065762,0.001047588,0.003515325,0.003043558,3619.523,3558.022,0,98.29467,,
	08/14/2022 18:36:39.379,880963,3172.23,54.00,6.00,-0.001060035,2.5,-0.00265009,0.0009469395,0.000933894,0.003127715,0.002710799,3216.162,3171.777,0,98.62235,,
	08/15/2022 09:52:06.634,935890,2898.24,63.00,6.00,-0.001059846,2.499998,-0.00264961,0.000865278,0.0008532105,0.002858981,0.002477316,2938.599,2897.823,0,98.60535,,
	08/15/2022 23:43:54.777,985798,2659.77,72.00,6.00,-0.001059891,2.499989,-0.00264972,0.0007929046,0.0007829625,0.002621244,0.002272976,2692.923,2659.354,0,98.74612,,
	08/16/2022 12:31:14.505,1.03184e+06,2422.6,81.00,6.00,-0.001059938,2.499987,-0.00264983,0.0007222321,0.000713184,0.002389614,0.002067324,2452.923,2422.203,0,98.7472,,
	08/17/2022 00:12:30.776,1.07391e+06,2271.43,90.00,6.00,-0.001060153,2.499983,-0.00265036,0.0006762669,0.0006686651,0.002237855,0.001938593,2296.674,2271.103,0,98.87592,,
	08/17/2022 11:12:27.765,1.11351e+06,2112.98,99.00,6.00,-0.001059895,2.499985,-0.00264972,0.0006288674,0.0006220139,0.002081827,0.001801833,2135.711,2112.666,0,98.91019,,
	08/17/2022 21:19:08.967,1.14991e+06,1923.11,108.00,6.00,-0.001060016,2.499996,-0.00265004,0.0005720526,0.0005661604,0.001896271,0.001635741,1942.895,1922.833,0,98.96999,,
	08/18/2022 06:39:24.262,1.18353e+06,1805.9,117.00,6.00,-0.001060117,2.499994,-0.00265029,0.0005374183,0.0005317082,0.001781967,0.001535093,1825.259,1805.667,0,98.93749,,
	08/18/2022 15:26:33.371,1.21516e+06,1705.58,126.00,6.00,-0.001059874,2.499962,-0.00264964,0.0005064787,0.0005021198,0.001679886,0.001448493,1720.176,1705.313,0,99.13937,,
	08/18/2022 23:45:27.289,1.24509e+06,1614.32,135.00,6.00,-0.00106007,2.499998,-0.00265017,0.0004795445,0.0004753074,0.001590959,0.001369987,1628.752,1614.1,0,99.11645,,
	08/19/2022 07:38:02.917,1.27345e+06,1533.55,144.00,6.00,-0.001060069,2.499992,-0.00265016,0.0004553417,0.0004514908,0.001510995,0.001300287,1546.526,1533.298,0,99.15428,,
	08/19/2022 15:08:52.799,1.3005e+06,1467.15,153.00,6.00,-0.001059958,2.499987,-0.00264988,0.0004355077,0.000431927,0.001445316,0.00124326,1479.074,1466.936,0,99.17781,,
	08/19/2022 22:19:40.762,1.32634e+06,1401.15,162.00,6.00,-0.001059968,2.499998,-0.00264992,0.0004157659,0.0004124988,0.001380021,0.001186487,1412.043,1400.929,0,99.21419,,
	08/20/2022 05:11:42.488,1.35107e+06,1342.64,171.00,6.00,-0.001060015,2.499998,-0.00265004,0.0003984226,0.0003952748,0.001322648,0.001136188,1353.192,1342.428,0,99.20992,,
	08/20/2022 11:47:20.374,1.3748e+06,1291.66,180.00,6.00,-0.001060058,2.499979,-0.00265012,0.0003829699,0.0003802936,0.001271448,0.00109238,1300.682,1291.507,0,99.30118,,
	08/20/2022 18:07:54.165,1.39764e+06,1243.66,189.00,6.00,-0.001059994,2.499992,-0.00264998,0.0003687444,0.000366124,0.001224327,0.001051135,1252.358,1243.468,0,99.28938,,
	08/21/2022 00:14:35.119,1.41964e+06,1199.13,198.00,6.00,-0.001060035,2.5,-0.00265009,0.000355374,0.0003530233,0.00118004,0.001012905,1206.936,1198.945,0,99.33852,,
	08/21/2022 06:07:58.507,1.44084e+06,1154.4,207.00,6.00,-0.001060091,2.499992,-0.00265022,0.0003422851,0.0003398893,0.001136665,0.0009746416,1162.546,1154.228,0,99.30003,,
	08/21/2022 11:49:12.817,1.46132e+06,1118.68,216.00,6.00,-0.001059966,2.499996,-0.00264991,0.0003313265,0.0003293435,0.001100341,0.0009438736,1125.323,1118.513,0,99.40151,,
	08/21/2022 17:20:00.112,1.48116e+06,1082.69,225.00,6.00,-0.001059944,2.499983,-0.00264984,0.0003208001,0.0003187399,0.001065391,0.0009130618,1089.599,1082.514,0,99.3578,,
	08/21/2022 22:40:13.785,1.50038e+06,1048.93,234.00,6.00,-0.001060082,2.499992,-0.0026502,0.0003108348,0.0003088333,0.001032342,0.0008842392,1055.717,1048.78,0,99.35606,,
	08/22/2022 03:50:45.941,1.51901e+06,1018.3,243.00,6.00,-0.001060151,2.499998,-0.00265038,0.0003016737,0.0002998145,0.001001942,0.0008580175,1024.626,1018.147,0,99.38371,,
	08/22/2022 08:52:27.238,1.53711e+06,990.5420,252.00,6.00,-0.001060163,2.499994,-0.0026504,0.0002933513,0.0002916517,0.0009743233,0.0008343325,996.2835,990.4186,0,99.42063,,
	08/22/2022 13:46:26.337,1.55475e+06,966.2385,261.00,6.00,-0.001059908,2.499956,-0.00264972,0.0002862765,0.0002844471,0.0009508044,0.00081347,972.2949,966.0845,0,99.36098,,
	08/22/2022 18:32:51.409,1.57193e+06,939.7389,270.00,6.00,-0.001059978,2.499996,-0.00264994,0.0002783465,0.0002766612,0.0009244801,0.0007908382,945.3233,939.6046,0,99.39455,,
	08/22/2022 23:11:45.215,1.58867e+06,917.2099,279.00,6.00,-0.001059991,2.499987,-0.00264996,0.0002715642,0.0002700435,0.0009019295,0.0007716456,922.342,917.0822,0,99.44001,,
	08/23/2022 03:43:55.871,1.605e+06,894.1421,288.00,6.00,-0.001059977,2.499975,-0.00264992,0.0002647759,0.0002632311,0.0008794328,0.000751923,899.2822,894.0149,0,99.41657,,
	08/23/2022 08:09:11.604,1.62091e+06,871.4475,297.00,6.00,-0.001060058,2.499994,-0.00265014,0.0002579899,0.0002565684,0.000856858,0.0007325596,876.1682,871.3426,0,99.44897,,
	08/23/2022 12:28:14.877,1.63646e+06,853.5883,306.00,6.00,-0.001059988,2.499971,-0.00264994,0.0002527796,0.0002513022,0.000839558,0.0007174063,858.5061,853.4822,0,99.41553,,
	08/23/2022 16:41:21.542,1.65164e+06,831.5299,315.00,6.00,-0.001060029,2.499998,-0.00265007,0.0002462575,0.0002448169,0.0008178607,0.0006986183,836.352,831.425,0,99.41501,,
	08/23/2022 20:48:31.913,1.66648e+06,813.2512,324.00,6.00,-0.001060078,2.499983,-0.00265018,0.0002407555,0.0002394492,0.0007996018,0.0006830972,817.6812,813.149,0,99.45743,,
	08/24/2022 00:49:44.762,1.68095e+06,793.3525,333.00,6.00,-0.001060131,2.499989,-0.00265032,0.0002349214,0.0002335861,0.000780226,0.0006661467,797.8766,793.2384,0,99.43159,,
	08/24/2022 04:45:24.757,1.69509e+06,775.6601,342.00,6.00,-0.001060124,2.499968,-0.00265028,0.0002296246,0.0002283633,0.0007626103,0.0006510541,779.8761,775.5338,0,99.4507,,
	08/24/2022 08:36:10.223,1.70893e+06,760.1608,351.00,6.00,-0.001060031,2.49999,-0.00265007,0.0002250268,0.0002238091,0.0007473344,0.0006379176,764.3103,760.047,0,99.45882,,
	08/24/2022 12:22:32.442,1.72252e+06,747.6289,360.00,6.00,-0.001059977,2.49999,-0.00264993,0.0002211619,0.0002201101,0.0007344633,0.0006272551,751.1005,747.5312,0,99.52445,,
	08/24/2022 16:05:18.334,1.73588e+06,734.4605,369.00,6.00,-0.001059876,2.499966,-0.00264965,0.000217332,0.0002162051,0.0007217246,0.0006160283,738.1352,734.3419,0,99.48151,,
	08/24/2022 19:43:46.276,1.74899e+06,720.8485,378.00,6.00,-0.001060057,2.499981,-0.00265012,0.0002132543,0.0002122179,0.000708145,0.0006045249,724.275,720.7402,0,99.514,,
	08/24/2022 23:17:48.060,1.76183e+06,704.6586,387.00,6.00,-0.001060125,2.499987,-0.0026503,0.0002085892,0.000207476,0.0006926473,0.0005908725,708.4463,704.557,0,99.46632,,
	08/25/2022 02:47:26.807,1.77441e+06,691.0039,396.00,6.00,-0.001060054,2.499996,-0.00265013,0.0002045241,0.0002034388,0.0006791222,0.0005792341,694.6515,690.8963,0,99.46934,,
	08/25/2022 06:13:15.231,1.78676e+06,678.6846,405.00,6.00,-0.001060072,2.5,-0.00265018,0.0002008418,0.0001998235,0.0006668728,0.0005688551,682.1286,678.5748,0,99.49299,,
	08/25/2022 09:35:42.429,1.79891e+06,668.7124,414.00,6.00,-0.001060005,2.499996,-0.00265001,0.000197797,0.0001968625,0.000656747,0.0005603272,671.7699,668.6073,0,99.52754,,
	08/25/2022 12:55:30.268,1.81089e+06,661.7668,423.00,6.00,-0.001059876,2.499954,-0.00264964,0.0001959705,0.0001947985,0.0006506643,0.0005544008,665.5188,661.6375,0,99.40195,,
	08/25/2022 16:12:37.637,1.82272e+06,650.5622,432.00,6.00,-0.001059941,2.499968,-0.00264982,0.0001925288,0.0001915102,0.0006392083,0.0005449454,653.8312,650.4649,0,99.47096,,
	08/25/2022 19:26:08.865,1.83433e+06,637.8451,441.00,6.00,-0.001059957,2.49999,-0.00264988,0.0001886934,0.0001877607,0.0006264457,0.0005341495,640.8261,637.6922,0,99.5057,,
	08/25/2022 22:36:10.337,1.84573e+06,626.6306,450.00,6.00,-0.001059997,2.499949,-0.00264994,0.0001854394,0.0001844778,0.0006156269,0.0005247399,629.7689,626.5349,0,99.48147,,
	08/26/2022 01:42:56.445,1.85694e+06,616.3672,459.00,6.00,-0.001060068,2.5,-0.00265017,0.0001824446,0.0001814705,0.0006056435,0.000516083,619.6495,616.2893,0,99.46611,,
	08/26/2022 04:46:38.558,1.86796e+06,606.1289,468.00,6.00,-0.001060078,2.499996,-0.00265019,0.0001793231,0.0001784579,0.0005952635,0.0005074334,609.0538,606.0516,0,99.51749,,
	08/26/2022 07:47:23.805,1.87881e+06,597.1165,477.00,6.00,-0.001059958,2.499994,-0.00264989,0.0001766637,0.000175795,0.000586413,0.0004998022,599.9966,597.0477,0,99.50828,,
	08/26/2022 10:45:45.061,1.88951e+06,589.5941,486.00,6.00,-0.001060041,2.499992,-0.00265009,0.0001744755,0.0001735871,0.0005791198,0.0004934641,592.5948,589.5187,0,99.49084,,
	08/26/2022 13:41:59.590,1.90008e+06,582.7974,495.00,6.00,-0.001059987,2.499983,-0.00264995,0.0001724561,0.0001715769,0.0005724105,0.0004877102,585.7075,582.7265,0,99.49015,,
	08/26/2022 16:17:01.424,1.90938e+06,577.1473,503.00,6.00,-0.001059948,2.499998,-0.00264987,0.0001707968,0.0001699069,0.0005668911,0.0004829258,580.0338,577.082,0,99.47899,,