Folder: ML-for-Si-Battery-Electrolyte/Cell-test-data/SiMP-LFP-PFOF10

Note: README.md
# ML-for-Si-Battery-Electrolyte

File: JB4_SiMP-LFP-PFOF10_03C_Channel_88_StatisticByCycle.CSV
Date_Time                    ,Test Time (s),Step Time (s),Cycle Index,Step Index,Current (A),Voltage (V),Power (W),Charge Capacity (Ah),Discharge Capacity (Ah),Charge Energy (Wh),Discharge Energy (Wh),Charge Time (s),Discharge Time (s),V_Max_On_Cycle (V),Coulombic Efficiency (%),mAh/g
	07/21/2022 16:23:26.956,179304,61170.3,1,3,-0.0001590014,2.499974,-0.000397499,0.003309002,0.00270143,0.01095458,0.008020845,74923.49,61162.59,0,81.63881,,
	07/24/2022 18:01:36.169,444393.034,7155.688,5,6,-0.001060104,2.499995,-0.00265025,0.002151829,0.002106904,0.00702265,0.006095096,7307.982,7154.772,0,97.91222,,
	07/25/2022 09:19:19.996,499457,6618.74,9,6,-0.001060145,2.499963,-0.00265032,0.001991039,0.001948743,0.006498407,0.005632661,6762.005,6617.878,0,97.87569,,
	07/25/2022 23:33:38.386,550715,6168.07,13,6,-0.001059846,2.49997,-0.00264958,0.001853511,0.001815999,0.006052353,0.005253395,6295.031,6167.259,0,97.97616,,
	07/26/2022 12:49:35.790,598473,5765.31,17,6,-0.001060143,2.499974,-0.00265033,0.001729861,0.001697506,0.005652902,0.004914666,5874.942,5764.567,0,98.12958,,
	07/27/2022 01:18:16.730,643393.595,5430.63,21,6,-0.001059843,2.499959,-0.00264956,0.001627524,0.001598628,0.005320798,0.004632167,5527.556,5429.932,0,98.22449,,
	07/27/2022 13:04:02.512,685739,5142.02,25,6,-0.001060161,2.499995,-0.0026504,0.001540011,0.001513851,0.005036826,0.004388964,5230.453,5141.349,0,98.30131,,
	07/28/2022 00:15:04.365,726001,4889.2,29,6,-0.00105987,2.49999,-0.00264966,0.001461042,0.001439291,0.004780415,0.004174699,4962.198,4888.621,0,98.51128,,
	07/28/2022 10:52:11.207,764228,4659.78,33,6,-0.001059836,2.499959,-0.00264955,0.001390734,0.001371606,0.004552501,0.003979025,4723.199,4658.841,0,98.62468,,
	07/28/2022 21:01:09.994,800767,4455.21,37,6,-0.001060171,2.499978,-0.0026504,0.001332107,0.001311577,0.004360693,0.003807781,4524.057,4454.581,0,98.45878,,
	07/29/2022 06:43:05.523,835682,4269.74,41,6,-0.001060166,2.499997,-0.00265041,0.001273368,0.001256937,0.004170429,0.00364892,4324.688,4269.195,0,98.70966,,
	07/29/2022 16:02:02.745,869220,4117.41,45,6,-0.001060081,2.499953,-0.00265015,0.00122762,0.001212315,0.004020619,0.003523078,4169.131,4116.899,0,98.75327,,
	07/30/2022 01:00:22.667,901520,3939.43,49,6,-0.001060136,2.499991,-0.00265033,0.001173623,0.00115974,0.003845058,0.003368353,3985.936,3938.862,0,98.81705,,
	07/30/2022 09:36:00.192,932457,3796.52,53,6,-0.001060123,2.499995,-0.0026503,0.001129846,0.001117653,0.003702591,0.003245857,3837.219,3796.021,0,98.92078,,
	07/30/2022 17:55:20.186,962417,3693.66,57,6,-0.001060124,2.499978,-0.00265029,0.001099223,0.001087555,0.00360126,0.003161375,3733.166,3693.182,0,98.93854,,
	07/31/2022 01:57:38.458,991355,3546.3,61,6,-0.001060148,2.499986,-0.00265036,0.001055793,0.001044179,0.00346108,0.003032967,3585.602,3545.842,0,98.89999,,
	07/31/2022 09:43:52.077,1.01933e+06,3435.41,65,6,-0.001059867,2.499982,-0.00264965,0.001022225,0.001011344,0.003351481,0.002937457,3471.731,3434.941,0,98.93562,,
	07/31/2022 17:15:30.567,1.04643e+06,3335.11,69,6,-0.001060123,2.499961,-0.00265027,0.0009914277,0.000981982,0.003251071,0.002852153,3367.074,3334.649,0,99.04726,,
	08/01/2022 00:35:22.736,1.07282e+06,3241.98,73,6,-0.001060104,2.499995,-0.00265025,0.0009640848,0.0009545624,0.003161373,0.002772286,3274.227,3241.546,0,99.01229,,
	08/01/2022 07:42:21.637,1.09844e+06,3156.45,77,6,-0.001059846,2.499982,-0.0026496,0.000938306,0.0009292923,0.003077505,0.002698622,3186.763,3156.054,0,99.03938,,
	08/01/2022 14:38:34.638,1.12341e+06,3080.13,81,6,-0.001060124,2.499871,-0.00265017,0.0009154748,0.0009069066,0.003002418,0.002634725,3109.153,3079.763,0,99.06407,,
	08/01/2022 21:27:15.659,1.14793e+06,3029.922,85,6,-0.001060081,2.499972,-0.00265017,0.0008997219,0.0008921121,0.002949404,0.002593746,3055.588,3029.523,0,99.15421,,
	08/02/2022 04:08:10.714,1.17199e+06,2968.38,89,6,-0.001060037,2.499978,-0.00265007,0.0008817826,0.000873949,0.002890019,0.002541695,2994.619,2968.012,0,99.11162,,
	08/02/2022 10:38:46.766,1.19542e+06,2867.858,93,6,-0.001060127,2.499993,-0.00265031,0.0008529728,0.0008444196,0.002797097,0.002452415,2896.86,2867.498,0,98.99725,,
	08/02/2022 16:55:29.291,1.21803e+06,2784.95,97,6,-0.001060151,2.499925,-0.0026503,0.0008274443,0.000820003,0.002714869,0.002380343,2810.149,2784.558,0,99.10069,,
	08/02/2022 23:04:04.453,1.24014e+06,2735.862,101,6,-0.001059855,2.499885,-0.00264952,0.0008113838,0.0008055386,0.002661873,0.002338706,2755.607,2735.467,0,99.2796,,
	08/03/2022 05:04:55.132,1.26179e+06,2674.05,105,6,-0.001059846,2.499976,-0.00264959,0.0007930849,0.0007872144,0.002602396,0.002284394,2693.525,2673.703,0,99.2598,,
	08/03/2022 10:58:32.036,1.28301e+06,2618.23,109,6,-0.00106012,2.499953,-0.00265025,0.0007771113,0.0007709057,0.002550302,0.002236868,2639.201,2617.874,0,99.20145,,
	08/03/2022 16:46:25.581,1.30388e+06,2576.256,113,6,-0.00105985,2.499976,-0.0026496,0.0007657041,0.0007585255,0.002512266,0.002201444,2600.458,2575.938,0,99.06248,,
	08/03/2022 22:26:27.473,1.32428e+06,2524.43,117,6,-0.001060062,2.499988,-0.00265014,0.0007479819,0.0007432497,0.002454877,0.002156659,2540.214,2524.008,0,99.36734,,
	08/04/2022 04:02:00.441,1.34442e+06,2484.36,121,6,-0.001060112,2.499986,-0.00265027,0.0007371577,0.0007314616,0.002418767,0.002122461,2503.502,2483.952,0,99.2273,,
	08/04/2022 09:29:22.206,1.36406e+06,2428.6,125,6,-0.001060083,2.499894,-0.0026501,0.0007192719,0.0007150252,0.00236109,0.002073691,2442.764,2428.164,0,99.40958,,
	08/04/2022 14:51:58.382,1.38342e+06,2395.74,129,6,-0.001060136,2.499993,-0.00265033,0.0007106921,0.0007054039,0.002332206,0.002046536,2413.6,2395.421,0,99.25591,,
	08/04/2022 20:09:27.726,1.40246e+06,2356.39,133,6,-0.001060117,2.499944,-0.00265023,0.0006994996,0.0006937952,0.002295522,0.002012809,2375.588,2356.034,0,99.18451,,
	08/05/2022 01:20:33.992,1421130.857,2305.83,137,6,-0.001060148,2.499869,-0.00265023,0.0006833301,0.000678896,0.002243133,0.001968204,2320.696,2305.425,0,99.3511,,
	08/05/2022 06:25:42.350,1.43944e+06,2266.39,141,6,-0.001060145,2.499974,-0.00265033,0.0006718714,0.0006672309,0.002205758,0.001934038,2281.866,2266.07,0,99.30932,,
	08/05/2022 11:25:39.564,1.45744e+06,2231.23,145,6,-0.001060173,2.499959,-0.00265039,0.0006606479,0.0006569712,0.002169022,0.001904184,2243.748,2230.96,0,99.44347,,
	08/05/2022 16:23:35.742,1.47531e+06,2219.91,149,6,-0.001060148,2.499984,-0.00265035,0.0006581101,0.0006536373,0.002159646,0.001896273,2235.087,2219.631,0,99.32036,,
	08/05/2022 21:18:14.872,1.49299e+06,2188.407,153,6,-0.001060109,2.499997,-0.00265027,0.0006488643,0.0006443492,0.002129154,0.001869131,2203.673,2188.161,0,99.30417,,
	08/06/2022 02:07:31.996,1.51035e+06,2143.96,157,6,-0.001060136,2.499993,-0.00265033,0.0006355729,0.000631273,0.002086078,0.001830096,2158.531,2143.698,0,99.32346,,
	08/06/2022 06:51:00.813,1.52736e+06,2105.23,161,6,-0.001060122,2.499932,-0.00265023,0.0006238456,0.0006198623,0.002048163,0.001796144,2118.705,2104.964,0,99.3615,,
	08/06/2022 11:29:12.746,1.54405e+06,2068.59,165,6,-0.00106015,2.499963,-0.00265034,0.0006124866,0.0006090818,0.002011279,0.001764313,2080.109,2068.338,0,99.44411,,
	08/06/2022 16:04:53.867,1.56059e+06,2059.78,169,6,-0.001060088,2.499997,-0.00265022,0.0006099764,0.0006064542,0.002002204,0.001758139,2071.508,2059.51,0,99.42257,,
	08/06/2022 20:38:32.336,1577009.201,2035.2,173,6,-0.001060108,2.499972,-0.00265024,0.000602891,0.0005992499,0.001978655,0.001737303,2047.489,2034.948,0,99.39606,,
	08/07/2022 01:07:16.317,1.59313e+06,1993.27,177,6,-0.001060132,2.499969,-0.0026503,0.0005907377,0.0005868588,0.001939471,0.001700117,2006.307,1993.023,0,99.34339,,
	08/07/2022 05:30:54.380,1.60895e+06,1958.67,181,6,-0.001059825,2.499829,-0.00264938,0.0005798199,0.0005766602,0.001904032,0.00166992,1969.2,1958.446,0,99.45506,,
	08/07/2022 09:50:24.278,1624521.143,1927.64,185,6,-0.001060166,2.499976,-0.00265039,0.0005715399,0.0005675752,0.001877106,0.001643025,1941.112,1927.399,0,99.3063,,
	08/07/2022 14:06:40.346,1.6399e+06,1914.05,189,6,-0.001060095,2.499984,-0.00265022,0.0005669198,0.0005635631,0.001861579,0.001632109,1925.341,1913.826,0,99.4079,,
	08/07/2022 18:21:23.846,1.65518e+06,1895.88,193,6,-0.001060071,2.499991,-0.00265017,0.0005620152,0.0005582185,0.001845036,0.001617011,1908.69,1895.685,0,99.32444,,
	08/07/2022 22:32:42.293,1.67026e+06,1868.194,197,6,-0.001060083,2.499986,-0.00265019,0.0005535216,0.0005500599,0.001817366,0.001592848,1879.792,1867.975,0,99.37461,,
	08/08/2022 01:38:27.114,1.6814e+06,1843.76,200,6,-0.001060094,2.499871,-0.0026501,0.0005462392,0.0005428672,0.00179377,0.001571398,1855.059,1843.529,0,99.38269,,

File: JB4_SiMP-LFP-PFOF10_03C_Channel_88_StatisticByStep.CSV
Date_Time                    ,Test Time (s),Step Time (s),Cycle Index,Step Index,Current (A),Voltage (V),Power (W),Charge Capacity (Ah),Discharge Capacity (Ah),Charge Energy (Wh),Discharge Energy (Wh),Charge Time (s),Discharge Time (s),V_Max_On_Cycle (V),Coulombic Efficiency (%),mAh/g
	07/20/2022 02:35:03.135,43200,43200,1.00,1.00,0,0.1841488,0,0,0,0,0,0,0,0,0,,
	07/24/2022 11:57:58.457,422575,7891.22,4.00,5.00,0.001059979,3.50002,0.00370995,0.002323228,4.505287E-10,0.007601751,1.126044E-09,7890.219,0.0102,0,1.939236E-05,,
	07/25/2022 01:49:07.252,472444,6869.59,7.00,6.00,-0.001060175,2.499978,-0.00265041,0.002066115,0.002022384,0.006742073,0.005845229,7016.964,6868.698,0,97.88342,,
	07/25/2022 14:47:24.197,519141,6539.22,11.00,5.00,0.001060087,3.50001,0.00371032,0.001925181,5.299778E-10,0.006284202,1.324906E-09,6538.29,0.0018,0,2.752873E-05,,
	07/26/2022 02:57:47.311,562964,6064.24,14.00,6.00,-0.001060097,2.49994,-0.00265018,0.001820822,0.001785383,0.005946877,0.005165492,6183.891,6063.454,0,98.05368,,
	07/26/2022 14:26:09.436,604266,5793.61,18.00,5.00,0.001060054,3.500009,0.0037102,0.001705708,3.386985E-09,0.00557377,8.46752E-09,5792.872,0.0115,0,0.0001985677,,
	07/27/2022 01:18:16.730,643394,5430.63,21.00,6.00,-0.001059843,2.499959,-0.00264956,0.001627524,0.001598628,0.005320798,0.004632167,5527.556,5429.932,0,98.22449,,
	07/27/2022 11:38:20.465,680597,5231.15,25.00,5.00,0.001060002,3.50001,0.00371002,0.001540009,2.738476E-09,0.00503682,6.846386E-09,5230.447,0.0093,0,0.0001778221,,
	07/27/2022 21:30:52.271,716149,4957.49,28.00,6.00,-0.001059837,2.499928,-0.00264952,0.001484342,0.001459451,0.004854455,0.004233421,5041.206,4956.828,0,98.32308,,
	07/28/2022 06:57:15.054,750132,4785.1,32.00,5.00,0.001059965,3.500014,0.00370989,0.001408626,2.561343E-09,0.004610529,6.40425E-09,4784.056,0.0077,0,0.0001818326,,
	07/28/2022 15:59:53.252,782690,4558.66,35.00,6.00,-0.00106012,2.499953,-0.00265025,0.001362008,0.001342211,0.004458854,0.003896411,4625.605,4558.056,0,98.54646,,
	07/29/2022 00:42:35.877,814053,4415.72,39.00,5.00,0.001059972,3.500058,0.00370996,0.0013,1.383756E-09,0.004257092,3.458809E-09,4415.154,0.0047,0,0.0001064428,,
	07/29/2022 09:04:49.695,844187,4222.25,42.00,6.00,-0.001060138,2.499976,-0.00265032,0.001260599,0.001243008,0.004128842,0.003608938,4281.26,4221.671,0,98.60453,,
	07/29/2022 17:11:06.752,873364,4143.98,46.00,5.00,0.001060026,3.500039,0.00371013,0.001220068,3.356284E-09,0.003994426,8.390478E-09,4143.368,0.0114,0,0.00027509,,
	07/30/2022 01:00:22.667,901520,3939.43,49.00,6.00,-0.001060136,2.499991,-0.00265033,0.001173623,0.00115974,0.003845058,0.003368353,3985.936,3938.862,0,98.81705,,
	07/30/2022 08:32:43.645,928661,3837.72,53.00,5.00,0.001059991,3.500041,0.00371001,0.001129844,2.797726E-09,0.003702581,6.994235E-09,3837.21,0.0095,0,0.0002476207,,
	07/30/2022 15:51:32.823,954990,3711.81,56.00,6.00,-0.001060087,2.499972,-0.00265019,0.001105162,0.001092879,0.003621856,0.003176017,3753.338,3711.294,0,98.88853,,
	07/30/2022 22:59:09.023,980646,3618.61,60.00,5.00,0.001059982,3.500018,0.00370996,0.001065312,3.209079E-09,0.003492199,8.023609E-09,3618.083,0.008599999,0,0.0003012336,,
	07/31/2022 05:52:36.461,1.00545e+06,3493.98,63.00,6.00,-0.001059873,2.499961,-0.00264964,0.001038454,0.001028646,0.003404578,0.002987574,3526.756,3493.499,0,99.05545,,
	07/31/2022 12:34:57.446,1.02959e+06,3413.52,67.00,5.00,0.001059979,3.500016,0.00370994,0.001004943,2.533234E-09,0.003295246,6.332179E-09,3413.019,0.008599999,0,0.0002520774,,
	07/31/2022 19:06:37.319,1.05309e+06,3317.24,70.00,6.00,-0.001060064,2.499993,-0.00265015,0.0009861382,0.0009767314,0.003233491,0.002837432,3349.039,3316.814,0,99.0461,,
	08/01/2022 01:29:30.868,1.07607e+06,3248.1,74.00,5.00,0.001060025,3.500009,0.0037101,0.0009562745,2.915209E-09,0.003136135,7.286698E-09,3247.674,0.0099,0,0.0003048506,,
	08/01/2022 07:42:21.637,1.09844e+06,3156.45,77.00,6.00,-0.001059846,2.499982,-0.0026496,0.000938306,0.0009292923,0.003077505,0.002698622,3186.763,3156.054,0,99.03938,,
	08/01/2022 13:47:14.481,1.12033e+06,3109.56,81.00,5.00,0.00106004,3.500003,0.00371014,0.0009154726,2.296558E-09,0.003002411,5.742202E-09,3109.146,0.0078,0,0.0002508603,,
	08/01/2022 19:45:49.672,1.14185e+06,3040.05,84.00,6.00,-0.001060104,2.49999,-0.00265025,0.0009037814,0.0008950846,0.002962985,0.002601709,3069.412,3039.629,0,99.03773,,
	08/02/2022 01:39:02.725,1.16304e+06,3013.92,88.00,5.00,0.001060071,3.50001,0.00371026,0.0008873398,2.885288E-09,0.002908191,7.214199E-09,3013.488,0.0098,0,0.0003251616,,
	08/02/2022 07:25:14.444,1.18381e+06,2933.93,91.00,6.00,-0.00106003,2.499946,-0.00265002,0.0008716122,0.0008638031,0.002856551,0.002512301,2960.028,2933.503,0,99.10406,,
	08/02/2022 13:01:10.782,1.20397e+06,2842.22,95.00,5.00,0.00105999,3.50001,0.00370998,0.0008367726,2.385132E-09,0.002745422,5.962966E-09,2841.822,0.0081,0,0.0002850395,,
	08/02/2022 18:28:14.785,1.22359e+06,2772.44,98.00,6.00,-0.001060134,2.499993,-0.00265033,0.0008222751,0.0008163117,0.002697796,0.002369608,2792.62,2772.061,0,99.27477,,
	08/02/2022 23:49:47.216,1.24288e+06,2742.73,102.00,5.00,0.001060002,3.500028,0.00371004,0.0008074628,1.618934E-09,0.002649094,4.046927E-09,2742.321,0.0055,0,0.0002004964,,
	08/03/2022 05:04:55.132,1.26179e+06,2674.05,105.00,6.00,-0.001059846,2.499976,-0.00264959,0.0007930849,0.0007872144,0.002602396,0.002284394,2693.525,2673.703,0,99.2598,,
	08/03/2022 10:14:53.786,1.28039e+06,2639.53,109.00,5.00,0.001060002,3.500005,0.00371001,0.0007771086,2.827474E-09,0.002550292,7.068078E-09,2639.192,0.0096,0,0.0003638455,,
	08/03/2022 15:20:08.491,1.29871e+06,2597.12,112.00,6.00,-0.001060136,2.499953,-0.00265029,0.0007707184,0.0007646563,0.002528569,0.00221999,2617.484,2596.766,0,99.21344,,
	08/03/2022 20:19:51.111,1.31669e+06,2551.34,116.00,5.00,0.001060056,3.500022,0.00371022,0.0007511083,2.415135E-09,0.002465212,6.037791E-09,2550.88,0.007,0,0.0003215429,,
	08/04/2022 01:14:58.829,1.3344e+06,2519.3,119.00,6.00,-0.001060069,2.499967,-0.00265014,0.0007457057,0.0007416944,0.002446504,0.002153471,2532.44,2518.814,0,99.46208,,
	08/04/2022 06:05:42.177,1.35184e+06,2469.53,123.00,5.00,0.00106001,3.500043,0.00371008,0.0007270161,2.915196E-09,0.002386201,7.286885E-09,2469.082,0.0099,0,0.0004009809,,
	08/04/2022 10:50:21.709,1.36892e+06,2421.48,126.00,6.00,-0.001060053,2.499972,-0.0026501,0.0007177664,0.000712921,0.002355959,0.002068045,2437.58,2420.984,0,99.32493,,
	08/04/2022 15:31:59.230,1.38582e+06,2400.82,130.00,5.00,0.001060002,3.500094,0.00371011,0.0007067957,2.826787E-09,0.002319551,7.067021E-09,2400.382,0.0073,0,0.0003999441,,
	08/04/2022 20:09:27.726,1.40246e+06,2356.39,133.00,6.00,-0.001060117,2.499944,-0.00265023,0.0006994996,0.0006937952,0.002295522,0.002012809,2375.588,2356.034,0,99.18451,,
	08/05/2022 00:42:08.138,1.41883e+06,2321.11,137.00,5.00,0.001060039,3.500041,0.00371018,0.000683328,2.945118E-09,0.002243125,7.365677E-09,2320.688,0.0074,0,0.0004309962,,
	08/05/2022 05:09:53.728,1.43489e+06,2276.28,140.00,6.00,-0.001059857,2.49998,-0.00264962,0.0006752731,0.0006700799,0.002216926,0.001942254,2293.427,2276.003,0,99.23094,,
	08/05/2022 09:33:46.148,1.45072e+06,2251.83,144.00,5.00,0.001059993,3.500005,0.00370998,0.0006629437,2.44384E-09,0.002176688,6.11377E-09,2251.541,0.0083,0,0.0003686346,,
	08/05/2022 13:54:51.971,1.46639e+06,2231.72,147.00,6.00,-0.001060097,2.499993,-0.00265024,0.0006608304,0.0006571042,0.002168915,0.001905868,2244.298,2231.411,0,99.43614,,
	08/05/2022 18:14:43.377,1.48198e+06,2222.74,151.00,5.00,0.001059984,3.500051,0.00371,0.0006543927,1.855095E-09,0.002147132,4.638312E-09,2222.434,0.0063,0,0.0002834834,,
	08/05/2022 22:31:08.072,1.49736e+06,2180.06,154.00,6.00,-0.00106012,2.49999,-0.00265029,0.0006456714,0.0006418966,0.002118715,0.001861836,2192.825,2179.775,0,99.41537,,
	08/06/2022 02:43:19.936,1.5125e+06,2147.91,158.00,5.00,0.001060026,3.500007,0.0037101,0.0006323736,3.328082E-09,0.002075768,8.319257E-09,2147.63,0.0113,0,0.0005262842,,
	08/06/2022 06:51:00.813,1.52736e+06,2105.23,161.00,6.00,-0.001060122,2.499932,-0.00265023,0.0006238456,0.0006198623,0.002048163,0.001796144,2118.705,2104.964,0,99.3615,,
	08/06/2022 10:54:44.133,1.54198e+06,2080.39,165.00,5.00,0.001060005,3.500005,0.00371002,0.0006124837,4.005233E-09,0.002011269,1.001466E-08,2080.1,0.0111,0,0.000653933,,
	08/06/2022 14:56:02.264,1.55646e+06,2060.33,168.00,6.00,-0.001060081,2.499995,-0.0026502,0.0006100833,0.0006066375,0.002002765,0.001758239,2071.931,2060.066,0,99.4352,,
	08/06/2022 18:56:26.313,1.57088e+06,2056.13,172.00,5.00,0.001060053,3.500058,0.00371025,0.0006053659,3.533727E-09,0.001986783,8.835261E-09,2055.882,0.012,0,0.0005837341,,
	08/06/2022 22:53:34.804,1.58511e+06,2014.06,175.00,6.00,-0.001060124,2.499993,-0.0026503,0.0005964961,0.0005930154,0.001957961,0.001718568,2025.832,2013.813,0,99.41647,,
	08/07/2022 02:46:44.334,1.5991e+06,1987.76,179.00,5.00,0.001059966,3.500005,0.00370989,0.0005852018,3.091896E-09,0.001921549,7.730385E-09,1987.509,0.0105,0,0.0005283469,,
	08/07/2022 06:36:10.004,1.61287e+06,1952.08,182.00,6.00,-0.001060173,2.499993,-0.00265043,0.0005780773,0.0005747526,0.001898373,0.001664382,1963.266,1951.826,0,99.42487,,
	08/07/2022 10:22:36.782,1.62645e+06,1932.47,186.00,5.00,0.001059981,3.500022,0.00370996,0.0005689422,3.32746E-09,0.001868678,8.319134E-09,1932.214,0.0093,0,0.0005848504,,
	08/07/2022 14:06:40.346,1.6399e+06,1914.05,189.00,6.00,-0.001060095,2.499984,-0.00265022,0.0005669198,0.0005635631,0.001861579,0.001632109,1925.341,1913.826,0,99.4079,,
	08/07/2022 17:49:47.944,1.65328e+06,1908.94,193.00,5.00,0.00106002,3.500043,0.00371012,0.0005620138,2.591677E-09,0.001845031,6.479029E-09,1908.685,0.0088,0,0.0004611412,,
	08/07/2022 21:30:14.002,1.66651e+06,1875.68,196.00,6.00,-0.001060064,2.499999,-0.00265016,0.0005559661,0.0005522646,0.001825267,0.001599446,1888.11,1875.445,0,99.33423,,
	08/08/2022 01:07:43.325,1.67956e+06,1855.29,200.00,5.00,0.001060085,3.500028,0.00371033,0.0005462378,2.914666E-09,0.001793765,7.285259E-09,1855.054,0.009099999,0,0.0005335892,,
	08/08/2022 01:38:27.114,1.6814e+06,1843.76,200.00,6.00,-0.001060094,2.499871,-0.0026501,0.0005462392,0.0005428672,0.00179377,0.001571398,1855.059,1843.529,0,99.38269,,