Folder: ML-for-Si-Battery-Electrolyte/Cell-test-data/SiMP-LFP-SS3

Note: README.md
# ML-for-Si-Battery-Electrolyte

File: JB3_SiMPs-LFP-BSF3-A5_Channel_36_StatisticByCycle.CSV
Date_Time                    ,Test Time (s),Step Time (s),Cycle Index,Step Index,Current (A),Voltage (V),Power (W),Charge Capacity (Ah),Discharge Capacity (Ah),Charge Energy (Wh),Discharge Energy (Wh),Charge Time (s),Discharge Time (s),V_Max_On_Cycle (V),Coulombic Efficiency (%),mAh/g
	05/16/2022 16:49:43.073,178602,60805.8,1,3,-0.000159002,2.499994,-0.000397504,0.003294202,0.002685203,0.01083658,0.007969375,74586.68,60797.77,0,81.51299,,
	05/19/2022 19:12:55.351,446394,7444.09,5,6,-0.001060002,2.499994,-0.00265,0.002225689,0.002191626,0.007244471,0.006326088,7559.517,7443.112,0,98.46954,,
	05/20/2022 11:27:13.183,504851.919,7160.24,9,6,-0.00106005,2.499992,-0.00265012,0.002137147,0.002108082,0.006947057,0.006077323,7258.265,7159.316,0,98.64004,,
	05/21/2022 03:08:45.884,561345,6908.19,13,6,-0.001060023,2.499998,-0.00265006,0.002062128,0.00203388,0.006699426,0.005859871,7004.09,6907.331,0,98.63013,,
	05/21/2022 18:16:47.586,615826,6695.38,17,6,-0.001060088,2.499994,-0.00265021,0.001995599,0.001971306,0.006481639,0.005681077,6777.104,6694.5,0,98.78267,,
	05/22/2022 08:55:10.260,668529,6471.05,21,6,-0.00105996,2.499964,-0.00264986,0.001928172,0.00190506,0.00626371,0.005488827,6548.578,6470.25,0,98.80133,,
	05/22/2022 23:06:41.589,719620,6274.323,25,6,-0.001060018,2.499998,-0.00265004,0.001868377,0.001847252,0.006069618,0.005323001,6345.72,6273.524,0,98.86935,,
	05/23/2022 12:52:43.138,769182,6092.978,29,6,-0.001060006,2.499996,-0.00265001,0.001814141,0.001793898,0.005894271,0.005170367,6161.881,6092.166,0,98.88418,,
	05/24/2022 02:15:09.806,817329,5922.4,33,6,-0.001060045,2.499992,-0.0026501,0.001762753,0.001743633,0.005727761,0.005026234,5987.229,5921.632,0,98.91532,,
	05/24/2022 15:15:34.771,864154,5763.56,37,6,-0.001059944,2.49999,-0.00264985,0.001715685,0.001696789,0.005575554,0.004892962,5827.135,5762.814,0,98.89862,,
	05/25/2022 03:56:18.524,909797,5632.63,41,6,-0.001060092,2.499996,-0.00265023,0.001674744,0.001658427,0.005442102,0.004785348,5687.619,5631.902,0,99.0257,,
	05/25/2022 16:18:58.066,954357,5477.54,45,6,-0.001059984,2.499989,-0.00264995,0.001628291,0.001612563,0.005292302,0.004651665,5530.212,5476.838,0,99.03411,,
	05/26/2022 04:21:23.441,997702,5339.41,49,6,-0.001059923,2.499992,-0.0026498,0.001588492,0.001571849,0.00516327,0.00453535,5394.703,5338.724,0,98.95225,,
	05/26/2022 16:06:15.553,1.03999e+06,5206.45,53,6,-0.001059902,2.499983,-0.00264974,0.001548895,0.001532587,0.005035192,0.00442176,5260.174,5205.399,0,98.94708,,
	05/27/2022 03:33:30.334,1.08123e+06,5081.76,57,6,-0.001059856,2.499998,-0.00264964,0.001510496,0.001495953,0.004911032,0.004317203,5129.624,5081.054,0,99.03719,,
	05/27/2022 14:44:24.218,1.12148e+06,4960.98,61,6,-0.001059889,2.499998,-0.00264972,0.001476312,0.001460367,0.0048001,0.004215476,5013.466,4960.154,0,98.91998,,
	05/28/2022 01:38:59.450,1.16076e+06,4842.93,65,6,-0.001059907,2.499996,-0.00264976,0.001439052,0.001425586,0.00468011,0.004114442,4886.922,4842.017,0,99.06422,,
	05/28/2022 12:18:25.594,1.19912e+06,4734.78,69,6,-0.001059907,2.499985,-0.00264975,0.00140798,0.001393798,0.004579029,0.004023983,4781.574,4733.972,0,98.99273,,
	05/28/2022 22:43:29.132,1236627.868,4623.62,73,6,-0.001059897,2.499998,-0.00264974,0.0013738,0.001361048,0.004468512,0.003929015,4665.37,4622.879,0,99.07179,,
	05/29/2022 08:53:43.708,1.27324e+06,4514.39,77,6,-0.001059948,2.499994,-0.00264986,0.001342208,0.001328918,0.004366333,0.003836235,4557.893,4513.692,0,99.0098,,
	05/29/2022 18:51:12.238,1.30909e+06,4418.9,81,6,-0.001059978,2.499994,-0.00264994,0.001314189,0.001300896,0.004274981,0.003756367,4463.598,4418.164,0,98.98852,,
	05/30/2022 04:35:33.332,1.34415e+06,4327.23,85,6,-0.001059865,2.499979,-0.00264964,0.001286028,0.001273794,0.004183513,0.003677838,4367.254,4326.557,0,99.04871,,
	05/30/2022 14:07:43.836,1.37848e+06,4234.69,89,6,-0.001059964,2.499989,-0.0026499,0.001258735,0.001246641,0.004094702,0.003599419,4274.957,4233.908,0,99.03918,,
	05/30/2022 23:27:34.161,1.41207e+06,4144.39,93,6,-0.001059956,2.49999,-0.00264988,0.001231826,0.001220015,0.0040075,0.00352271,4183.526,4143.73,0,99.04118,,
	05/31/2022 08:35:30.948,1.44495e+06,4059.82,97,6,-0.001059888,2.499985,-0.0026497,0.001206307,0.001195096,0.003924605,0.003450385,4096.53,4059.174,0,99.07064,,
	05/31/2022 17:31:57.087,1.47714e+06,3970.72,101,6,-0.001059992,2.499996,-0.00264998,0.001180468,0.001168966,0.00384073,0.00337484,4009.214,3970.087,0,99.02569,,
	06/01/2022 02:17:20.565,1.50866e+06,3892.84,105,6,-0.001059921,2.499998,-0.0026498,0.001156899,0.001145942,0.003764009,0.003308448,3928.954,3892.191,0,99.05289,,
	06/01/2022 10:52:24.945,1.53956e+06,3812.81,109,6,-0.001059997,2.499994,-0.00264999,0.001134475,0.001122448,0.003691065,0.0032404,3852.795,3812.161,0,98.93987,,
	06/01/2022 19:17:00.970,1.56984e+06,3737.07,113,6,-0.001059964,2.499992,-0.0026499,0.001111323,0.001100171,0.003615756,0.003175662,3774.565,3736.505,0,98.99644,,
	06/02/2022 03:31:37.053,1599515.789,3665.138,117,6,-0.001059912,2.499994,-0.00264977,0.001089151,0.001078917,0.003543702,0.003114012,3698.9,3664.475,0,99.06031,,
	06/02/2022 11:36:40.513,1.62862e+06,3593.418,121,6,-0.001059914,2.499994,-0.00264978,0.001068391,0.001057751,0.003476004,0.003052674,3628.184,3592.647,0,99.00417,,
	06/02/2022 19:32:14.799,1.65715e+06,3522.22,125,6,-0.001059992,2.49999,-0.00264997,0.001046858,0.001036865,0.003406029,0.002991902,3555.469,3521.563,0,99.04543,,
	06/03/2022 03:18:44.398,1.68514e+06,3458.97,129,6,-0.001059898,2.499998,-0.00264974,0.001028107,0.001018225,0.003344994,0.002938296,3491.382,3458.414,0,99.03883,,
	06/03/2022 10:56:44.738,1.71262e+06,3392.755,133,6,-0.001059891,2.499998,-0.00264973,0.001008223,0.0009986581,0.003280257,0.002881521,3423.877,3391.984,0,99.05134,,
	06/03/2022 18:25:51.289,1739570.025,3328.62,137,6,-0.001059939,2.499975,-0.00264982,0.0009889455,0.0009798183,0.003217651,0.002826556,3358.704,3327.79,0,99.07707,,
	06/04/2022 01:47:08.363,1.76605e+06,3272.83,141,6,-0.001059869,2.499989,-0.00264966,0.0009723601,0.0009633562,0.003163472,0.002778958,3302.01,3272.084,0,99.07401,,
	06/04/2022 09:00:41.665,1.79206e+06,3214.35,145,6,-0.00105986,2.499994,-0.00264964,0.000955798,0.0009461861,0.00310958,0.002729122,3245.731,3213.798,0,98.99435,,
	06/04/2022 16:06:21.425,1.8176e+06,3153.34,149,6,-0.001060016,2.499996,-0.00265004,0.0009370784,0.0009283295,0.003048919,0.002676807,3182.466,3152.927,0,99.06636,,
	06/04/2022 23:04:10.576,1.84267e+06,3099.76,153,6,-0.001059933,2.499987,-0.00264982,0.0009211249,0.0009124945,0.002996883,0.002630892,3128.265,3099.222,0,99.06306,,
	06/05/2022 05:54:51.737,1.86731e+06,3045.28,157,6,-0.001059953,2.499994,-0.00264988,0.0009047497,0.0008964451,0.002943652,0.002584317,3072.588,3044.737,0,99.08211,,
	06/05/2022 12:38:45.326,1.89154e+06,2993.502,161,6,-0.001059944,2.499998,-0.00264986,0.0008899613,0.0008811803,0.002895418,0.002540049,3022.356,2992.907,0,99.01334,,
	06/05/2022 19:15:33.419,1915352.155,2944.3,165,6,-0.00106,2.499994,-0.00264999,0.0008746875,0.0008667778,0.002845684,0.002498095,2970.518,2943.889,0,99.09571,,
	06/06/2022 01:45:55.868,1.93877e+06,2895.58,169,6,-0.001059939,2.499979,-0.00264983,0.0008602324,0.0008523909,0.002798689,0.002456284,2921.352,2895.162,0,99.08845,,
	06/06/2022 08:10:10.516,1961829.252,2852.6,173,6,-0.0010599,2.499996,-0.00264975,0.0008469442,0.0008396776,0.002755497,0.002419508,2876.748,2852.036,0,99.14202,,
	06/06/2022 14:28:11.456,1.98451e+06,2803.936,177,6,-0.00105996,2.499996,-0.0026499,0.0008330484,0.0008254116,0.002710377,0.002377763,2829.132,2803.432,0,99.08327,,
	06/06/2022 20:40:45.911,2.00686e+06,2767.6,181,6,-0.001059969,2.499989,-0.00264991,0.0008224637,0.0008147402,0.002675425,0.002347504,2793.398,2767.086,0,99.06094,,
	06/07/2022 02:47:05.374,2.02884e+06,2717.63,185,6,-0.001059879,2.499994,-0.00264969,0.0008068238,0.0007999648,0.00262473,0.002304175,2739.85,2717.177,0,99.14988,,
	06/07/2022 08:48:03.804,2.0505e+06,2679.63,189,6,-0.001059875,2.499996,-0.00264968,0.0007956398,0.0007887707,0.002588428,0.00227156,2702.503,2679.139,0,99.13667,,
	06/07/2022 14:43:26.633,2071825.369,2639.01,193,6,-0.00105995,2.499989,-0.00264986,0.0007831668,0.0007768496,0.002547928,0.002236787,2659.731,2638.5,0,99.19338,,
	06/07/2022 20:33:24.380,2.09282e+06,2598.63,197,6,-0.001059907,2.499998,-0.00264977,0.0007719158,0.0007649669,0.002511383,0.002202397,2621.565,2598.192,0,99.09979,,
	06/08/2022 00:52:33.748,2.10837e+06,2572.02,200,6,-0.001059869,2.499985,-0.00264966,0.000763396,0.0007571035,0.002483586,0.002179602,2592.385,2571.58,0,99.17573,,

File: JB3_SiMPs-LFP-BSF3-A5_Channel_36_StatisticByStep.CSV
Date_Time                    ,Test Time (s),Step Time (s),Cycle Index,Step Index,Current (A),Voltage (V),Power (W),Charge Capacity (Ah),Discharge Capacity (Ah),Charge Energy (Wh),Discharge Energy (Wh),Charge Time (s),Discharge Time (s),V_Max_On_Cycle (V),Coulombic Efficiency (%),mAh/g
	05/15/2022 03:13:01.265,43200,43200,1.00,1.00,0,0.3095436,0,0,0,0,0,0,0,0,0,,
	05/19/2022 12:56:03.314,423782,8049.1,4.00,5.00,0.001059894,3.500002,0.00370963,0.002369505,4.548937E-10,0.007732874,1.1373E-09,8048.061,0.0094,0,1.919784E-05,,
	05/20/2022 03:24:13.188,475872,7293.48,7.00,6.00,-0.001059912,2.499994,-0.00264977,0.002176127,0.002147228,0.007077448,0.006193412,7391.23,7292.515,0,98.67197,,
	05/20/2022 17:24:37.333,526296,7149.53,11.00,5.00,0.001060151,3.500004,0.00371053,0.002105125,2.297195E-09,0.006839334,5.74283E-09,7148.626,0.0078,0,0.0001091239,,
	05/21/2022 06:58:26.430,575125,6845.63,14.00,6.00,-0.001060048,2.499992,-0.00265011,0.002041445,0.002015486,0.006633101,0.005806379,6933.953,6844.774,0,98.72842,,
	05/21/2022 20:08:40.142,622539,6712.52,18.00,5.00,0.001059853,3.500006,0.00370949,0.001976021,3.357256E-09,0.006418959,8.393384E-09,6711.654,0.0114,0,0.0001698998,,
	05/22/2022 08:55:10.260,668529,6471.05,21.00,6.00,-0.00105996,2.499964,-0.00264986,0.001928172,0.00190506,0.00626371,0.005488827,6548.578,6470.25,0,98.80133,,
	05/22/2022 21:22:07.242,713346,6346.53,25.00,5.00,0.001059826,3.500032,0.00370942,0.001868375,1.531261E-09,0.006069613,3.828177E-09,6345.716,0.0052,0,8.195681E-05,,
	05/23/2022 09:28:27.460,756926,6136.21,28.00,6.00,-0.001059995,2.499996,-0.00264998,0.001827139,0.001806536,0.005935818,0.005206383,6205.601,6135.443,0,98.87238,,
	05/23/2022 21:17:16.322,799455,6029.85,32.00,5.00,0.001059935,3.500021,0.00370979,0.001775086,3.033098E-09,0.005767605,7.582841E-09,6029.097,0.0103,0,0.0001708704,,
	05/24/2022 08:47:57.474,840896,5836.55,35.00,6.00,-0.001060028,2.499992,-0.00265006,0.001738143,0.001718378,0.005648097,0.004954157,5903.638,5835.82,0,98.86288,,
	05/24/2022 20:03:19.003,881418,5750.82,39.00,5.00,0.001059989,3.500006,0.00370997,0.001693095,2.385156E-09,0.005502183,5.963122E-09,5750.069,0.0081,0,0.0001408754,,
	05/25/2022 07:04:21.688,921080,5611.74,42.00,6.00,-0.001060134,2.499985,-0.00265032,0.001669883,0.001652312,0.005424505,0.004769828,5670.667,5610.995,0,98.94778,,
	05/25/2022 17:50:38.584,959857,5500.49,46.00,5.00,0.001059965,3.5,0.00370988,0.001619349,3.150544E-09,0.005263011,7.876086E-09,5499.802,0.0107,0,0.0001945562,,
	05/26/2022 04:21:23.441,997702,5339.41,49.00,6.00,-0.001059923,2.499992,-0.0026498,0.001588492,0.001571849,0.00516327,0.00453535,5394.703,5338.724,0,98.95225,,
	05/26/2022 14:39:29.075,1.03479e+06,5260.95,53.00,5.00,0.00106007,3.500015,0.00371026,0.001548894,1.737087E-09,0.005035187,4.342666E-09,5260.169,0.0059,0,0.0001121502,,
	05/27/2022 00:43:17.879,1.07102e+06,5110.12,56.00,6.00,-0.001059888,2.499989,-0.00264971,0.001520536,0.001504326,0.004943623,0.004341329,5163.716,5109.403,0,98.93389,,
	05/27/2022 10:34:58.650,1.10652e+06,5040.46,60.00,5.00,0.0010601,3.500002,0.00371035,0.001484024,1.85474E-09,0.004825342,4.636958E-09,5039.564,0.0063,0,0.0001249805,,
	05/27/2022 20:13:38.159,1.14124e+06,4899.65,63.00,6.00,-0.001059897,2.499994,-0.00264974,0.001456275,0.001442328,0.004735424,0.004162935,4945.43,4898.851,0,99.04225,,
	05/28/2022 05:40:47.430,1.17527e+06,4833.07,67.00,5.00,0.001060086,3.500002,0.0037103,0.001422969,1.472106E-09,0.004628072,3.680193E-09,4832.348,0.005,0,0.0001034531,,
	05/28/2022 14:56:08.913,1.20859e+06,4706.68,70.00,6.00,-0.001059941,2.499996,-0.00264985,0.001400422,0.001385542,0.004554475,0.004000385,4755.828,4705.855,0,98.93742,,
	05/29/2022 00:00:49.268,1.24127e+06,4640.11,74.00,5.00,0.001060082,3.5,0.003710287,0.00136616,1.472E-09,0.004443803,3.680214E-09,4639.377,0.005,0,0.0001077473,,
	05/29/2022 08:53:43.708,1.27324e+06,4514.39,77.00,6.00,-0.001059948,2.499994,-0.00264986,0.001342208,0.001328918,0.004366333,0.003836235,4557.893,4513.692,0,99.0098,,
	05/29/2022 17:37:33.314,1.30467e+06,4464.32,81.00,5.00,0.001059934,3.500004,0.00370977,0.001314188,1.266175E-09,0.004274976,3.165531E-09,4463.593,0.0043,0,9.634661E-05,,
	05/30/2022 02:10:38.157,1.33546e+06,4350.29,84.00,6.00,-0.001059897,2.499992,-0.00264973,0.00129277,0.001280549,0.004205234,0.003697502,4390.254,4349.461,0,99.05466,,
	05/30/2022 10:34:54.129,1.36571e+06,4300.67,88.00,5.00,0.001060116,3.500004,0.00371041,0.001266213,1.472036E-09,0.004119041,3.679788E-09,4300.036,0.005,0,0.000116255,,
	05/30/2022 18:49:08.546,1.39537e+06,4189.3,91.00,6.00,-0.00105996,2.499994,-0.00264989,0.001245324,0.001233319,0.004051499,0.003560638,4229.585,4188.683,0,99.03595,,
	05/31/2022 02:54:37.304,1.4245e+06,4137.62,95.00,5.00,0.001060072,3.5,0.003710252,0.001218213,1.82549E-09,0.003963267,4.563821E-09,4136.981,0.005,0,0.0001498498,,
	05/31/2022 10:50:50.646,1.45307e+06,4039.37,98.00,6.00,-0.001059975,2.499998,-0.00264994,0.001201314,0.001189101,0.003908354,0.003433415,4079.654,4038.661,0,98.9833,,
	05/31/2022 18:38:28.380,1.48113e+06,3991.26,102.00,5.00,0.001059949,3.50001,0.00370983,0.001174955,1.825729E-09,0.003822779,4.564225E-09,3990.593,0.0053,0,0.0001553871,,
	06/01/2022 02:17:20.565,1.50866e+06,3892.84,105.00,6.00,-0.001059921,2.499998,-0.0026498,0.001156899,0.001145942,0.003764009,0.003308448,3928.954,3892.191,0,99.05289,,
	06/01/2022 09:48:52.116,1.53575e+06,3853.41,109.00,5.00,0.00106003,3.500004,0.00371011,0.001134473,1.707729E-09,0.003691059,4.269585E-09,3852.789,0.0049,0,0.0001505305,,
	06/01/2022 17:11:48.654,1.56233e+06,3755.19,112.00,6.00,-0.00106,2.499998,-0.00265,0.001116319,0.001105524,0.003632277,0.003191087,3791.391,3754.62,0,99.03298,,
	06/02/2022 00:27:30.467,1.58847e+06,3718.13,116.00,5.00,0.001059989,3.5,0.00370996,0.001094508,1.737033E-09,0.003561045,4.342285E-09,3717.268,0.0049,0,0.0001587044,,
	06/02/2022 07:35:19.065,1.61414e+06,3629.19,119.00,6.00,-0.001059844,2.499992,-0.0026496,0.00107882,0.001068279,0.003510057,0.003083286,3663.636,3628.5,0,99.02296,,
	06/02/2022 14:36:19.906,1.6394e+06,3592.68,123.00,5.00,0.001059975,3.500002,0.00370991,0.001057661,1.619396E-09,0.003441306,4.048549E-09,3592.04,0.0046,0,0.000153111,,
	06/02/2022 21:29:35.528,1.66419e+06,3503.77,126.00,6.00,-0.001059912,2.5,-0.00264978,0.001041235,0.001031413,0.003387981,0.002976221,3536.268,3503.182,0,99.05669,,
	06/03/2022 04:16:39.747,1.68862e+06,3475.32,130.00,5.00,0.001060094,3.5,0.003710329,0.001023168,1.619091E-09,0.003328886,4.047495E-09,3474.57,0.0055,0,0.0001582429,,
	06/03/2022 10:56:44.738,1.71262e+06,3392.76,133.00,6.00,-0.001059891,2.499998,-0.00264973,0.001008223,0.0009986581,0.003280257,0.002881521,3423.877,3391.984,0,99.05134,,
	06/03/2022 17:30:22.647,1.73624e+06,3359.49,137.00,5.00,0.001059987,3.500017,0.00370997,0.000988944,1.855221E-09,0.003217646,4.637963E-09,3358.698,0.0063,0,0.0001875962,,
	06/03/2022 23:57:32.941,1.75947e+06,3286.68,140.00,6.00,-0.001059903,2.499994,-0.00264975,0.0009765537,0.0009675137,0.003177068,0.002791039,3316.297,3286.254,0,99.0743,,
	06/04/2022 06:19:11.110,1.78237e+06,3258.75,144.00,5.00,0.001060156,3.5,0.003710546,0.0009593491,1.94383E-09,0.003121004,4.859751E-09,3257.951,0.0057,0,0.0002026196,,
	06/04/2022 12:34:32.566,1.80489e+06,3186.39,147.00,6.00,-0.001059931,2.5,-0.00264983,0.0009468672,0.0009379624,0.003080574,0.002705049,3215.442,3185.798,0,99.05956,,
	06/04/2022 18:44:04.720,1.82706e+06,3155.73,151.00,5.00,0.001060051,3.5,0.00371018,0.0009290359,2.061127E-09,0.003022742,5.152323E-09,3155.105,0.0062,0,0.0002218565,,
	06/05/2022 00:47:29.448,1.84887e+06,3084.98,154.00,6.00,-0.001059967,2.499994,-0.00264991,0.0009166743,0.000908171,0.002982513,0.002618286,3113.178,3084.481,0,99.07237,,
	06/05/2022 06:45:53.634,1.87037e+06,3061.87,158.00,5.00,0.001059982,3.500006,0.00370994,0.0009014287,2.090499E-09,0.002932805,5.226276E-09,3061.355,0.0071,0,0.0002319095,,
	06/05/2022 12:38:45.326,1.89154e+06,2993.5,161.00,6.00,-0.001059944,2.499998,-0.00264986,0.0008899613,0.0008811803,0.002895418,0.002540049,3022.356,2992.907,0,99.01334,,
	06/05/2022 18:26:29.102,1.91241e+06,2970.92,165.00,5.00,0.001060007,3.500002,0.00371003,0.0008746875,2.002151E-09,0.002845684,5.005444E-09,2970.518,0.0068,0,0.0002288991,,
	06/06/2022 00:08:58.507,1.93296e+06,2908.85,168.00,6.00,-0.001059933,2.499998,-0.00264983,0.0008640452,0.0008563368,0.002811125,0.002467847,2934.442,2908.477,0,99.10786,,
	06/06/2022 05:46:59.691,1.95324e+06,2889.92,172.00,5.00,0.001059901,3.50001,0.00370966,0.0008507722,5.887985E-10,0.002767856,1.471996E-09,2889.501,0.002,0,6.920754E-05,,
	06/06/2022 11:20:00.529,1.97322e+06,2827.95,175.00,6.00,-0.001059907,2.5,-0.00264977,0.0008405032,0.000832481,0.002734456,0.00239851,2854.197,2827.492,0,99.04554,,
	06/06/2022 16:48:35.137,1.99293e+06,2809.78,179.00,5.00,0.001059984,3.500004,0.00370995,0.0008270897,1.73743E-09,0.002690813,4.343461E-09,2808.992,0.0059,0,0.0002100655,,
	06/06/2022 22:12:57.891,2.0124e+06,2753.53,182.00,6.00,-0.001059888,2.499998,-0.00264972,0.0008179403,0.0008104768,0.0026608,0.002334624,2777.908,2752.762,0,99.08752,,
	06/07/2022 03:32:38.617,2.03158e+06,2733.22,186.00,5.00,0.001059873,3.500008,0.00370956,0.000804628,2.031485E-09,0.002617703,5.078704E-09,2732.735,0.0069,0,0.0002524751,,
	06/07/2022 08:48:03.804,2.0505e+06,2679.63,189.00,6.00,-0.001059875,2.499996,-0.00264968,0.0007956398,0.0007887707,0.002588428,0.00227156,2702.503,2679.139,0,99.13667,,
	06/07/2022 13:59:27.605,2.06919e+06,2660.22,193.00,5.00,0.001060049,3.5,0.00371017,0.0007831668,5.005139E-10,0.002547928,1.251272E-09,2659.731,0.0009,0,6.390898E-05,,
	06/07/2022 19:06:23.628,2.0876e+06,2609.1,196.00,6.00,-0.001059921,2.499992,-0.00264979,0.0007744636,0.0007679687,0.002519643,0.002211069,2630.154,2608.345,0,99.16136,,
	06/08/2022 00:09:41.708,2.1058e+06,2593.02,200.00,5.00,0.001060102,3.500019,0.00371038,0.000763396,5.299484E-10,0.002483586,1.32487E-09,2592.385,0.0018,0,6.941986E-05,,
	06/08/2022 00:52:33.748,2.10837e+06,2572.02,200.00,6.00,-0.001059869,2.499985,-0.00264966,0.000763396,0.0007571035,0.002483586,0.002179602,2592.385,2571.58,0,99.17573,,