Folder: ML-for-Si-Battery-Electrolyte/Cell-test-data/SiMP-LFP-SF10

Note: README.md
# ML-for-Si-Battery-Electrolyte

File: JB2_SiMP-LFP-SF10_03C_Channel_86_StatisticByCycle.CSV
Date_Time                    ,Test Time (s),Step Time (s),Cycle Index,Step Index,Current (A),Voltage (V),Power (W),Charge Capacity (Ah),Discharge Capacity (Ah),Charge Energy (Wh),Discharge Energy (Wh),Charge Time (s),Discharge Time (s),V_Max_On_Cycle (V),Coulombic Efficiency (%),mAh/g
	07/21/2022 15:30:03.713,176123.117,58047,1,3,-0.0001589981,2.499993,-0.000397494,0.003306544,0.002563256,0.01091521,0.00760898,74866.11,58039.46,0,77.52071,,
	07/24/2022 09:26:55.856,413535,5683.826,5,6,-0.001059956,2.499972,-0.00264986,0.001753532,0.001673303,0.005763034,0.004879805,5955.829,5683.125,0,95.42472,,
	07/24/2022 21:11:54.084,455833.488,4913.43,9,6,-0.001060014,2.499993,-0.00265003,0.001502968,0.001446536,0.004942091,0.004213002,5103.823,4912.79,0,96.24534,,
	07/25/2022 07:28:53.374,492853,4350.39,13,6,-0.001059961,2.499928,-0.00264983,0.001323119,0.00128075,0.004356436,0.003720138,4493.877,4349.776,0,96.79779,,
	07/25/2022 16:39:16.882,525876,3903.56,17,6,-0.001060035,2.499997,-0.00265008,0.001185966,0.001149278,0.003907994,0.003327328,4027.406,3903.077,0,96.90646,,
	07/26/2022 00:49:50.977,555310,3444.41,21,6,-0.001060018,2.499946,-0.00264999,0.001050458,0.00101405,0.00346924,0.002917634,3567.978,3443.988,0,96.53408,,
	07/26/2022 07:59:39.076,581098,2992.26,25,6,-0.001059949,2.499997,-0.00264987,0.0009170893,0.0008809406,0.003036257,0.002518199,3114.989,2991.891,0,96.05833,,
	07/26/2022 14:10:11.866,603331,2562.08,29,6,-0.001060025,2.499993,-0.00265006,0.0007885442,0.0007543354,0.00261628,0.002142957,2677.804,2561.75,0,95.66178,,
	07/26/2022 19:26:10.648,622290,2158.49,33,6,-0.001060026,2.499993,-0.00265006,0.0006674309,0.0006354963,0.002218543,0.001792986,2266.537,2158.226,0,95.21529,,
	07/26/2022 23:48:55.162,638055,1793.79,37,6,-0.001060016,2.499999,-0.00265004,0.0005538143,0.0005281258,0.001846979,0.001479381,1880.815,1793.578,0,95.36154,,
	07/27/2022 03:27:49.081,651188,1497.15,41,6,-0.00106004,2.499999,-0.0026501,0.000461345,0.0004407674,0.001542425,0.001227436,1566.927,1496.948,0,95.53964,,
	07/27/2022 06:30:43.832,662163,1254.69,45,6,-0.001059952,2.499991,-0.00264987,0.0003855308,0.0003693668,0.001291703,0.001023419,1309.468,1254.527,0,95.80733,,
	07/27/2022 09:04:17.826,671377,1056.99,49,6,-0.001059917,2.499949,-0.00264974,0.000323507,0.000311169,0.001085716,0.000858607,1098.826,1056.853,0,96.1862,,
	07/27/2022 11:13:51.477,679151,894.1339,53,6,-0.001059991,2.499999,-0.00264998,0.0002731929,0.000263244,0.0009179355,0.0007239084,927.8893,894.0377,0,96.35828,,
	07/27/2022 13:03:24.060,685723,757.2598,57,6,-0.00106003,2.499982,-0.00265006,0.0002305563,0.0002229513,0.0007752372,0.0006114276,782.9215,757.1608,0,96.70148,,
	07/27/2022 14:37:15.907,691355.311,657.9485,61,6,-0.001060093,2.499955,-0.00265018,0.0001996275,0.0001937229,0.0006710638,0.0005303933,677.9382,657.8694,0,97.04218,,
	07/27/2022 15:58:45.173,696245,570.3905,65,6,-0.001060093,2.499982,-0.00265021,0.0001729783,0.0001679433,0.0005811213,0.0004592712,587.4336,570.3232,0,97.08923,,
	07/27/2022 17:09:31.128,700491,495.1818,69,6,-0.00106014,2.499984,-0.00265033,0.0001499006,0.0001457994,0.000503037,0.0003984442,509.0762,495.12,0,97.26405,,
	07/27/2022 18:10:42.301,704161.705,427.0676,73,6,-0.001060097,2.499707,-0.00264993,0.0001290254,0.0001257438,0.0004323739,0.0003434848,438.179,427.018,0,97.45663,,
	07/27/2022 19:02:48.920,707288,361.1288,77,6,-0.001060073,2.499852,-0.00265003,0.0001092363,0.0001063263,0.0003653128,0.0002905219,370.9627,361.089,0,97.33604,,
	07/27/2022 19:46:21.659,709901,299.3934,81,6,-0.00106009,2.499988,-0.00265021,9.052469E-05,8.815193E-05,0.0003019101,0.0002410145,307.4108,299.3687,0,97.37888,,
	07/27/2022 20:22:14.390,712054,246.801,85,6,-0.001060037,2.499995,-0.00265009,7.4476E-05,7.26653E-05,0.0002475432,0.0001988445,252.9402,246.7819,0,97.56875,,
	07/27/2022 20:52:07.028,713846,209.6823,89,6,-0.001060015,2.499932,-0.00264997,6.260338E-05,6.173739E-05,0.0002073757,0.0001690331,212.5898,209.6679,0,98.6167,,
	07/27/2022 21:18:13.742,715413,184.1393,93,6,-0.001060083,2.499972,-0.00265018,5.529898E-05,5.421611E-05,0.0001826788,0.0001485389,187.787,184.1179,0,98.0418,,
	07/27/2022 21:41:20.248,716800,165.1933,97,6,-0.001060012,2.499953,-0.00264998,4.94273E-05,4.863695E-05,0.0001629085,0.0001332799,167.8454,165.1792,0,98.40098,,
	07/27/2022 22:02:25.235,718065,151.6971,101,6,-0.001060057,2.499991,-0.00265013,4.545229E-05,4.466504E-05,0.0001495263,0.0001224194,154.3471,151.6882,0,98.26797,,
	07/27/2022 22:21:56.070,719235,142.0068,105,6,-0.001060018,2.499843,-0.00264988,4.244232E-05,4.181162E-05,0.0001394111,0.0001145922,144.1255,142.0009,0,98.51398,,
	07/27/2022 22:40:10.847,720330,132.762,109,6,-0.001059979,2.499948,-0.00264989,3.963206E-05,3.908712E-05,0.0001300119,0.0001071167,134.6078,132.7514,0,98.62501,,
	07/27/2022 22:57:21.791,721361,125.2591,113,6,-0.001059963,2.499976,-0.00264988,3.743107E-05,3.687973E-05,0.0001226588,0.000101061,127.1391,125.2563,0,98.52704,,
	07/27/2022 23:13:42.535,722342,120.2053,117,6,-0.001059962,2.499967,-0.00264987,3.584585E-05,3.539149E-05,0.000117368,9.696872E-05,121.7546,120.1968,0,98.73248,,
	07/27/2022 23:29:23.751,723283,114.267,121,6,-0.001059975,2.499984,-0.00264992,3.416575E-05,3.364385E-05,0.0001117712,9.21621E-05,116.0201,114.2643,0,98.47247,,
	07/27/2022 23:44:30.077,724189,111.03,125,6,-0.001060012,2.499972,-0.00265,3.322796E-05,3.269055E-05,0.0001086326,8.954637E-05,112.8633,111.0249,0,98.38268,,
	07/27/2022 23:59:01.560,725061,106.6437,129,6,-0.001059998,2.499978,-0.00264997,3.185456E-05,3.14005E-05,0.0001040842,8.59959E-05,108.1922,106.6413,0,98.57458,,
	07/28/2022 00:13:05.048,725904.452,103.4307,133,6,-0.001059993,2.499995,-0.00264998,3.091506E-05,3.045454E-05,0.0001009633,8.338659E-05,104.9947,103.4311,0,98.51038,,
	07/28/2022 00:26:42.710,726722,100.1421,137,6,-0.001060012,2.499993,-0.00265002,2.992388E-05,2.948458E-05,9.767943E-05,8.071582E-05,101.6323,100.137,0,98.53196,,
	07/28/2022 00:39:57.641,727517,97.4651,141,6,-0.001060012,2.499951,-0.00264998,2.917344E-05,2.869818E-05,9.518545E-05,7.85507E-05,99.0678,97.4626,0,98.37093,,
	07/28/2022 00:52:52.866,728292,95.182,145,6,-0.001060042,2.49998,-0.00265008,2.849152E-05,2.802614E-05,9.291946E-05,7.669505E-05,96.7594,95.1809,0,98.3666,,
	07/28/2022 01:05:27.947,729047,92.8454,149,6,-0.001060037,2.499986,-0.00265008,2.774944E-05,2.733821E-05,9.047196E-05,7.480005E-05,94.2309,92.8438,0,98.51807,,
	07/28/2022 01:17:48.071,729787,90.9572,153,6,-0.001060023,2.499997,-0.00265005,2.721933E-05,2.67806E-05,8.871774E-05,7.326209E-05,92.4375,90.9526,0,98.38816,,
	07/28/2022 01:29:53.490,730513,89.3059,157,6,-0.001060025,2.499875,-0.00264993,2.668862E-05,2.6294E-05,8.696045E-05,7.191573E-05,90.6281,89.2987,0,98.5214,,
	07/28/2022 01:41:44.454,731224,87.5029,161,6,-0.001059975,2.499991,-0.00264993,2.618403E-05,2.576253E-05,8.529804E-05,7.045405E-05,88.9368,87.4984,0,98.39025,,
	07/28/2022 01:53:21.867,731921,85.9078,165,6,-0.001059975,2.499988,-0.00264992,2.570722E-05,2.52946E-05,8.373291E-05,6.916995E-05,87.3148,85.9061,0,98.39494,,
	07/28/2022 02:04:46.854,732606,84.3165,169,6,-0.001060004,2.499963,-0.00264997,2.523173E-05,2.482545E-05,8.216198E-05,6.786994E-05,85.6962,84.3131,0,98.38982,,
	07/28/2022 02:16:00.126,733280,82.9572,173,6,-0.001059987,2.499982,-0.00264995,2.48158E-05,2.44257E-05,8.07889E-05,6.676977E-05,84.2846,82.9548,0,98.428,,
	07/28/2022 02:27:03.254,733943,81.7017,177,6,-0.001060012,2.499972,-0.00265,2.444189E-05,2.405586E-05,7.955838E-05,6.574828E-05,83.0044,81.6986,0,98.42061,,
	07/28/2022 02:37:56.523,734596,80.5714,181,6,-0.001060026,2.499984,-0.00265005,2.411248E-05,2.372355E-05,7.847716E-05,6.483704E-05,81.9017,80.5695,0,98.38699,,
	07/28/2022 02:48:40.635,735240,79.3051,185,6,-0.001059993,2.499988,-0.00264997,2.375309E-05,2.335055E-05,7.729346E-05,6.380622E-05,80.6801,79.3066,0,98.30529,,
	07/28/2022 02:59:15.139,735875,78.1237,189,6,-0.001059986,2.49997,-0.00264993,2.342026E-05,2.3003E-05,7.620166E-05,6.285009E-05,79.546,78.1235,0,98.2184,,
	07/28/2022 03:09:40.518,736500,77.1492,193,6,-0.001059979,2.499928,-0.00264987,2.308732E-05,2.271427E-05,7.511507E-05,6.205386E-05,78.4184,77.1456,0,98.38418,,
	07/28/2022 03:19:57.538,737117,76.1237,197,6,-0.001060002,2.49994,-0.00264994,2.279351E-05,2.241257E-05,7.414588E-05,6.121981E-05,77.4016,76.1179,0,98.32871,,
	07/28/2022 03:27:35.707,737575,75.407,200,6,-0.001060084,2.499887,-0.00265009,2.259749E-05,2.220306E-05,7.350342E-05,6.06491E-05,76.7364,75.4027,0,98.2545,,

File: JB2_SiMP-LFP-SF10_03C_Channel_86_StatisticByStep.CSV
Date_Time                    ,Test Time (s),Step Time (s),Cycle Index,Step Index,Current (A),Voltage (V),Power (W),Charge Capacity (Ah),Discharge Capacity (Ah),Charge Energy (Wh),Discharge Energy (Wh),Charge Time (s),Discharge Time (s),V_Max_On_Cycle (V),Coulombic Efficiency (%),mAh/g
	07/20/2022 02:34:40.598,43200,43200,1.00,1.00,0,0.2446756,0,0,0,0,0,0,0,0,0,,
	07/24/2022 04:32:52.586,395892,6832.97,4.00,5.00,0.001059896,3.500012,0.00370965,0.002011514,5.609294E-10,0.006622626,1.402343E-09,6832.081,0.0127,0,2.788593E-05,,
	07/24/2022 15:31:48.542,435428,5260.51,7.00,6.00,-0.00106001,2.499904,-0.00264992,0.001613562,0.001548822,0.005304609,0.004515632,5479.504,5259.823,0,95.98775,,
	07/25/2022 01:12:51.750,470291,4772.78,11.00,5.00,0.001060173,3.500003,0.00371061,0.001405075,2.768511E-09,0.004623729,6.921205E-09,4772.161,0.0094,0,0.0001970365,,
	07/25/2022 09:52:12.577,501452,4232.22,14.00,6.00,-0.001060015,2.499972,-0.00265001,0.00128552,0.001245982,0.004233708,0.003616325,4366.329,4231.722,0,96.92432,,
	07/25/2022 17:44:35.794,529795,3918.88,18.00,5.00,0.001060087,3.500001,0.00371031,0.001153858,3.268918E-09,0.003803391,8.173598E-09,3918.41,0.0111,0,0.0002833035,,
	07/26/2022 00:49:50.977,555310,3444.41,21.00,6.00,-0.001060018,2.499946,-0.00264999,0.001050458,0.00101405,0.00346924,0.002917634,3567.978,3443.988,0,96.53408,,
	07/26/2022 07:09:46.795,578106,3115.39,25.00,5.00,0.001059868,3.500022,0.00370956,0.0009170871,2.649474E-09,0.00303625,6.623914E-09,3114.982,0.009,0,0.000288901,,
	07/26/2022 12:42:51.582,598091,2664.67,28.00,6.00,-0.001060073,2.499988,-0.00265017,0.0008197139,0.0007845253,0.002718593,0.002231974,2783.801,2664.33,0,95.70721,,
	07/26/2022 17:34:40.161,615600,2375.32,32.00,5.00,0.001060094,3.500001,0.00371033,0.0006993622,1.678783E-09,0.00232293,4.19677E-09,2374.987,0.0057,0,0.0002400448,,
	07/26/2022 21:43:32.164,630532,1964.51,35.00,6.00,-0.001060032,2.499951,-0.00265003,0.0006066746,0.0005783602,0.002020532,0.001625536,2060.177,1964.263,0,95.33284,,
	07/27/2022 01:16:03.509,643283,1717.11,39.00,5.00,0.001059815,3.500012,0.00370937,0.0005054632,3.415678E-09,0.001687899,8.539244E-09,1716.867,0.0092,0,0.0006757521,,
	07/27/2022 04:16:37.012,654116,1430.72,42.00,6.00,-0.001059942,2.499993,-0.00264985,0.000440745,0.0004212062,0.001474404,0.001171384,1496.964,1430.531,0,95.56686,,
	07/27/2022 06:51:37.964,663417,1254.1,46.00,5.00,0.00105988,3.50001,0.00370959,0.0003691727,3.26852E-09,0.001237462,8.16997E-09,1253.935,0.0101,0,0.0008853634,,
	07/27/2022 09:04:17.826,671377,1056.99,49.00,6.00,-0.001059917,2.499949,-0.00264974,0.000323507,0.000311169,0.001085716,0.000858607,1098.826,1056.853,0,96.1862,,
	07/27/2022 10:58:57.319,678257,928.0173,53.00,5.00,0.001059867,3.500007,0.00370954,0.0002731917,3.268124E-09,0.0009179313,8.169987E-09,927.8852,0.0111,0,0.001196275,,
	07/27/2022 12:37:43.732,684183,788.5384,56.00,6.00,-0.00106001,2.499894,-0.00264991,0.0002405782,0.0002321546,0.000808813,0.0006370399,817.0159,788.4418,0,96.49861,,
	07/27/2022 14:03:39.020,689338,701.5436,60.00,5.00,0.001060039,3.500085,0.00371023,0.0002065504,1.855372E-09,0.0006943924,4.638476E-09,701.4575,0.0063,0,0.000898266,,
	07/27/2022 15:19:27.019,693886,612.5680,63.00,6.00,-0.001060065,2.499969,-0.00265013,0.0001854521,0.00018036,0.0006232393,0.0004934358,629.7963,612.4899,0,97.25425,,
	07/27/2022 16:26:31.473,697911,547.9940,67.00,5.00,0.00106008,3.500102,0.00371039,0.0001613409,2.208854E-09,0.0005417587,5.522717E-09,547.9193,0.0075,0,0.00136906,,
	07/27/2022 17:25:40.394,701460,478.4436,70.00,6.00,-0.001060078,2.499984,-0.00265018,0.0001444912,0.00014087,0.0004847482,0.000384899,490.7104,478.3821,0,97.4938,,
	07/27/2022 18:17:43.710,704583,421.3780,74.00,5.00,0.001060067,3.500047,0.00371028,0.0001240617,3.328428E-09,0.0004155601,8.320669E-09,421.3216,0.0113,0,0.002682881,,
	07/27/2022 19:02:48.920,707288,361.1288,77.00,6.00,-0.001060073,2.499852,-0.00265003,0.0001092363,0.0001063263,0.0003653128,0.0002905219,370.9627,361.089,0,97.33604,,
	07/27/2022 19:41:22.242,709602,307.4400,81.00,5.00,0.001060092,3.500016,0.00371034,9.052331E-05,3.681008E-09,0.0003019052,9.203303E-09,307.4061,0.0099,0,0.004066365,,
	07/27/2022 20:13:54.567,711554,258.8357,84.00,6.00,-0.001060023,2.499951,-0.00265001,7.818203E-05,7.620721E-05,0.0002600911,0.0002085028,265.4916,258.8098,0,97.47407,,
	07/27/2022 20:41:28.410,713208,220.7306,88.00,5.00,0.00106011,3.500018,0.0037104,6.498836E-05,3.26873E-09,0.0002154383,8.17087E-09,220.6962,0.0111,0,0.005029717,,
	07/27/2022 21:05:36.632,714656,197.2889,91.00,6.00,-0.001060004,2.49999,-0.00265,5.919001E-05,5.808774E-05,0.0001957879,0.0001590936,201.0004,197.2721,0,98.13776,,
	07/27/2022 21:27:11.216,715951,176.9175,95.00,5.00,0.001059794,3.500043,0.00370932,5.208909E-05,2.916343E-09,0.0001718714,7.289964E-09,176.8918,0.0099,0,0.00559876,,
	07/27/2022 21:46:46.158,717126,161.8104,98.00,6.00,-0.001060026,2.499934,-0.00265,4.830411E-05,4.764289E-05,0.0001591263,0.0001305548,164.0328,161.8005,0,98.63113,,
	07/27/2022 22:04:56.052,718215,150.7861,102.00,5.00,0.001060164,3.500001,0.00371058,4.439177E-05,5.889129E-10,0.0001459758,1.472803E-09,150.7637,0.002,0,0.001326626,,
	07/27/2022 22:21:56.070,719235,142.0068,105.00,6.00,-0.001060018,2.499843,-0.00264988,4.244232E-05,4.181162E-05,0.0001394111,0.0001145922,144.1255,142.0009,0,98.51398,,
	07/27/2022 22:37:58.060,720197,134.6147,109.00,5.00,0.001059843,3.500012,0.00370946,3.962994E-05,2.208469E-09,0.0001300045,5.521573E-09,134.6006,0.0075,0,0.00557273,,
	07/27/2022 22:53:09.328,721109,126.9219,112.00,6.00,-0.001059971,2.499984,-0.00264991,3.792763E-05,3.737022E-05,0.0001243249,0.000102409,128.8264,126.917,0,98.53033,,
	07/27/2022 23:07:39.505,721979,122.4940,116.00,5.00,0.0010599,3.500024,0.00370968,3.60613E-05,3.738811E-09,0.0001180942,9.346071E-09,122.4797,0.0101,0,0.01036793,,
	07/27/2022 23:21:39.572,722819,117.6090,119.00,6.00,-0.001059989,2.499999,-0.00264997,3.520475E-05,3.462828E-05,0.0001152218,9.488194E-05,119.5782,117.6064,0,98.36252,,
	07/27/2022 23:35:06.998,723626,114.4813,123.00,5.00,0.00105987,3.500007,0.00370955,3.369982E-05,3.50437E-09,0.0001102145,8.761049E-09,114.4676,0.0119,0,0.01039878,,
	07/27/2022 23:48:11.423,724411,109.6855,126.00,6.00,-0.001059921,2.49999,-0.00264979,3.285686E-05,3.229606E-05,0.0001074041,8.846282E-05,111.5978,109.6872,0,98.2932,,
	07/28/2022 00:00:49.092,725168,107.4998,130.00,5.00,0.001060164,3.500005,0.00371058,3.164961E-05,1.648825E-09,0.0001034031,4.122668E-09,107.4866,0.0056,0,0.005209623,,
	07/28/2022 00:13:05.048,725904,103.4307,133.00,6.00,-0.001059993,2.499995,-0.00264998,3.091506E-05,3.045454E-05,0.0001009633,8.338659E-05,104.9947,103.4311,0,98.51038,,
	07/28/2022 00:25:02.542,726622,101.6402,137.00,5.00,0.001060168,3.500035,0.00371063,2.992208E-05,2.38509E-09,9.767315E-05,5.962308E-09,101.6262,0.0081,0,0.007971005,,
	07/28/2022 00:36:41.044,727320,98.2813,140.00,6.00,-0.001060054,2.499995,-0.00265013,2.939713E-05,2.893932E-05,9.592711E-05,7.921335E-05,99.8338,98.2812,0,98.44265,,
	07/28/2022 00:48:04.857,728004,97.4235,144.00,5.00,0.001060145,3.500062,0.00371057,2.86857E-05,5.006164E-10,9.357012E-05,1.251459E-09,97.4116,0.0017,0,0.001745177,,
	07/28/2022 00:59:12.938,728672,93.7915,147.00,6.00,-0.001060029,2.499991,-0.00265006,2.809202E-05,2.761524E-05,9.160701E-05,7.5566E-05,95.401,93.7873,0,98.30278,,
	07/28/2022 01:10:07.942,729327,93.6167,151.00,5.00,0.001060164,3.500089,0.00371067,2.756524E-05,3.032843E-09,8.986072E-05,7.581735E-09,93.6042,0.0092,0,0.01100242,,
	07/28/2022 01:20:50.631,729970,90.5027,154.00,6.00,-0.001060042,2.499932,-0.00265003,2.708754E-05,2.664687E-05,8.82878E-05,7.289862E-05,91.9968,90.496,0,98.37313,,
	07/28/2022 01:31:23.858,730603,90.3357,158.00,5.00,0.001060179,3.500016,0.00371064,2.659576E-05,2.120374E-09,8.66562E-05,5.300268E-09,90.3228,0.0072,0,0.007972603,,
	07/28/2022 01:41:44.454,731224,87.5029,161.00,6.00,-0.001059975,2.499991,-0.00264993,2.618403E-05,2.576253E-05,8.529804E-05,7.045405E-05,88.9368,87.4984,0,98.39025,,
	07/28/2022 01:51:55.935,731835,87.3195,165.00,5.00,0.001059873,3.500146,0.00370971,2.570536E-05,3.32697E-09,8.372642E-05,8.318072E-09,87.3085,0.01,0,0.01294271,,
	07/28/2022 02:01:56.777,732436,84.6756,168.00,6.00,-0.001060032,2.49999,-0.00265007,2.533796E-05,2.493218E-05,8.250901E-05,6.816032E-05,86.0601,84.6738,0,98.39855,,
	07/28/2022 02:11:49.526,733029,84.6723,172.00,5.00,0.001060112,3.500066,0.00371046,2.493095E-05,3.857538E-09,8.116886E-05,9.643504E-09,84.6609,0.0131,0,0.01547289,,
	07/28/2022 02:21:33.136,733613,82.4357,175.00,6.00,-0.001060018,2.499955,-0.00265,2.466145E-05,2.427275E-05,8.028297E-05,6.634659E-05,83.7501,82.4351,0,98.42389,,
	07/28/2022 02:31:09.718,734189,82.3991,179.00,5.00,0.001059845,3.50007,0.00370953,2.425865E-05,3.356933E-09,7.895916E-05,8.392215E-09,82.3892,0.0114,0,0.01383808,,
	07/28/2022 02:40:38.419,734758,80.2491,182.00,6.00,-0.001059961,2.499972,-0.00264987,2.40227E-05,2.362825E-05,7.817976E-05,6.457327E-05,81.5841,80.2469,0,98.35799,,
	07/28/2022 02:50:00.973,735320,80.3065,186.00,5.00,0.001059847,3.500014,0.00370948,2.364004E-05,2.709167E-09,7.692122E-05,6.772361E-09,80.2964,0.0092,0,0.01146008,,
	07/28/2022 02:59:15.139,735875,78.1237,189.00,6.00,-0.001059986,2.49997,-0.00264993,2.342026E-05,2.3003E-05,7.620166E-05,6.285009E-05,79.546,78.1235,0,98.2184,,
	07/28/2022 03:08:23.344,736423,78.4187,193.00,5.00,0.001059881,3.500012,0.0037096,2.308455E-05,1.531049E-09,7.510538E-05,3.827671E-09,78.409,0.0052,0,0.006632351,,
	07/28/2022 03:17:23.952,736963,76.3492,196.00,6.00,-0.001060023,2.499951,-0.00265001,2.282276E-05,2.248046E-05,7.42406E-05,6.140202E-05,77.5064,76.3473,0,98.50018,,
	07/28/2022 03:26:20.275,737500,76.7404,200.00,5.00,0.001060138,3.500003,0.00371049,2.259567E-05,1.855176E-09,7.349703E-05,4.637407E-09,76.7302,0.0063,0,0.008210316,,
	07/28/2022 03:27:35.707,737575,75.4070,200.00,6.00,-0.001060084,2.499887,-0.00265009,2.259749E-05,2.220306E-05,7.350342E-05,6.06491E-05,76.7364,75.4027,0,98.2545,,