Folder: ML-for-Si-Battery-Electrolyte/Cell-test-data/SiMP-LFP-PFP10

Note: README.md
# ML-for-Si-Battery-Electrolyte

File: JB8_SiMP-LFP-PFP10_03C_Channel_92_StatisticByStep.CSV
Date_Time                    ,Test Time (s),Step Time (s),Cycle Index,Step Index,Current (A),Voltage (V),Power (W),Charge Capacity (Ah),Discharge Capacity (Ah),Charge Energy (Wh),Discharge Energy (Wh),Charge Time (s),Discharge Time (s),V_Max_On_Cycle (V),Coulombic Efficiency (%),mAh/g
	07/20/2022 02:36:11.287,43200,43200,1.00,1.00,0,0.208601,0,0,0,0,0,0,0,0,0,,
	07/24/2022 10:31:43.441,417332,7862.65,4.00,5.00,0.001059843,3.500009,0.00370946,0.002314818,3.444416E-10,0.007565001,8.61106E-10,7861.484,0.0078,0,1.487986E-05,,
	07/25/2022 00:22:29.310,467178,6867.93,7.00,6.00,-0.001059873,2.499986,-0.00264967,0.002068142,0.002022139,0.006741147,0.005855532,7023.591,6866.879,0,97.77566,,
	07/25/2022 13:21:41.154,513930,6534.71,11.00,5.00,0.001059833,3.500009,0.00370943,0.001924019,2.974199E-09,0.00627254,7.435611E-09,6533.72,0.0101,0,0.0001545827,,
	07/26/2022 01:31:41.700,557730,6057.24,14.00,6.00,-0.00105984,2.499999,-0.0026496,0.00182232,0.001783191,0.005944165,0.005168609,6188.527,6056.338,0,97.85283,,
	07/26/2022 13:00:53.128,599082,5784.93,18.00,5.00,0.00106014,3.500005,0.0037105,0.001703076,2.44456E-09,0.005558161,6.111363E-09,5784.063,0.0075,0,0.0001435379,,
	07/26/2022 23:50:36.059,638065,5402.72,21.00,6.00,-0.001059818,2.499995,-0.00264954,0.001622247,0.001590514,0.005296415,0.004615733,5508.903,5401.923,0,98.04383,,
	07/27/2022 10:07:06.141,675055,5193.32,25.00,5.00,0.001060137,3.500007,0.00371049,0.0015291,3.94461E-09,0.004993676,9.860957E-09,5192.534,0.0134,0,0.0002579695,,
	07/27/2022 19:52:10.206,710159,4892.12,28.00,6.00,-0.001060113,2.49997,-0.00265025,0.001466429,0.001440395,0.004789473,0.004186141,4980.108,4891.401,0,98.22468,,
	07/28/2022 05:09:51.133,743620,4706.55,32.00,5.00,0.001059828,3.500007,0.00370941,0.001385749,1.972546E-09,0.004527944,4.931388E-09,4705.886,0.0067,0,0.0001423451,,
	07/28/2022 14:01:46.893,775536,4451.15,35.00,6.00,-0.001060166,2.499993,-0.00265041,0.001333265,0.001310527,0.00435722,0.003809664,4527.603,4450.569,0,98.2946,,
	07/28/2022 22:32:12.044,806161,4311.46,39.00,5.00,0.001060148,3.500012,0.00371053,0.001269447,2.797987E-09,0.004149997,6.995138E-09,4310.857,0.0095,0,0.0002204098,,
	07/29/2022 06:41:10.822,835500,4103.8,42.00,6.00,-0.001059862,2.499997,-0.00264965,0.001226548,0.001208088,0.004010018,0.0035127,4165.179,4103.247,0,98.49496,,
	07/29/2022 14:32:24.701,863773,3994.09,46.00,5.00,0.001060145,3.500007,0.00371051,0.001176026,3.121626E-09,0.003845255,7.803911E-09,3993.57,0.0106,0,0.0002654385,,
	07/29/2022 22:08:04.838,891114,3824.57,49.00,6.00,-0.001059841,2.499986,-0.00264959,0.001143396,0.001126099,0.003737712,0.003275746,3882.768,3824.043,0,98.48727,,
	07/30/2022 05:26:38.010,917427,3716.07,53.00,5.00,0.00106012,3.500012,0.00371043,0.001094154,2.090762E-09,0.00357804,5.226656E-09,3715.595,0.0071,0,0.0001910848,,
	07/30/2022 12:30:34.441,942863,3576.13,56.00,6.00,-0.001060158,2.499997,-0.00265039,0.001065781,0.001052837,0.003485144,0.003061297,3619.217,3575.642,0,98.78548,,
	07/30/2022 19:23:00.222,967609,3504.96,60.00,5.00,0.001060136,3.500001,0.00371048,0.001031985,3.268942E-09,0.003373676,8.171861E-09,3504.506,0.0111,0,0.0003167625,,
	07/31/2022 02:01:40.267,991529,3362.04,63.00,6.00,-0.0010601,2.499993,-0.00265024,0.001000946,0.0009898228,0.003273236,0.002877253,3399.098,3361.608,0,98.88872,,
	07/31/2022 08:29:38.748,1.01481e+06,3297.06,67.00,5.00,0.00106012,3.500005,0.00371043,0.0009707908,2.885342E-09,0.003174408,7.213262E-09,3296.603,0.0098,0,0.0002972156,,
	07/31/2022 14:46:10.419,1.0374e+06,3172.69,70.00,6.00,-0.001060163,2.499978,-0.00265038,0.0009466253,0.0009341723,0.003095696,0.002715041,3214.563,3172.263,0,98.68448,,
	07/31/2022 20:52:26.184,1.05937e+06,3121.82,74.00,5.00,0.001059814,3.500009,0.00370936,0.0009191916,2.679601E-09,0.003005503,6.699088E-09,3121.412,0.009099999,0,0.0002915172,,
	08/01/2022 02:48:52.757,1.08076e+06,3003.71,77.00,6.00,-0.001060134,2.499997,-0.00265033,0.000895349,0.0008843099,0.002928089,0.002569409,3040.553,3003.306,0,98.76705,,
	08/01/2022 08:35:52.161,1.10158e+06,2954.71,81.00,5.00,0.001060132,3.500001,0.00371046,0.0008699637,2.944672E-09,0.002844829,7.361079E-09,2954.295,0.0092,0,0.0003384822,,
	08/01/2022 14:13:18.458,1.12183e+06,2849.78,84.00,6.00,-0.001060067,2.499997,-0.00265016,0.0008491736,0.0008390836,0.002776744,0.002437775,2883.804,2849.411,0,98.81178,,
	08/01/2022 19:43:52.973,1.14166e+06,2815.99,88.00,5.00,0.001060126,3.500003,0.00371044,0.0008290823,3.00388E-09,0.00270985,7.50942E-09,2815.587,0.009,0,0.0003623138,,
	08/02/2022 01:06:41.691,1.16103e+06,2728.05,91.00,6.00,-0.001060071,2.499999,-0.00265018,0.0008133271,0.0008032418,0.00265763,0.002335287,2762.035,2727.708,0,98.75999,,
	08/02/2022 06:22:14.350,1.17996e+06,2683.59,95.00,5.00,0.001059854,3.500014,0.0037095,0.0007901451,3.976283E-09,0.002581331,9.940855E-09,2683.25,0.0135,0,0.0005032346,,
	08/02/2022 11:27:23.876,1.19827e+06,2557.76,98.00,6.00,-0.001060151,2.499986,-0.00265036,0.0007625895,0.0007530352,0.00249292,0.002185942,2589.659,2557.4,0,98.74713,,
	08/02/2022 16:21:52.276,1.21594e+06,2506.61,102.00,5.00,0.001060127,3.500001,0.00371045,0.0007380434,2.089859E-09,0.002413409,5.224474E-09,2506.247,0.0071,0,0.000283162,,
	08/02/2022 21:08:59.742,1.23317e+06,2426.72,105.00,6.00,-0.001060107,2.499997,-0.00265026,0.000722009,0.0007145304,0.00236079,0.00207312,2451.819,2426.407,0,98.96418,,
	08/03/2022 01:49:39.051,1.25001e+06,2383.72,109.00,5.00,0.001060122,3.500009,0.00371044,0.0007018748,2.738007E-09,0.002294797,6.844539E-09,2383.44,0.0093,0,0.000390099,,
	08/03/2022 06:22:07.486,1.26636e+06,2300.54,112.00,6.00,-0.001059825,2.499999,-0.00264956,0.0006851205,0.0006772495,0.002240074,0.001963938,2326.573,2300.232,0,98.85115,,
	08/03/2022 10:48:07.564,1.28232e+06,2263.1,116.00,5.00,0.001060101,3.500026,0.00371038,0.0006663115,4.005353E-09,0.002178474,1.00136E-08,2262.8,0.0136,0,0.0006011232,,
	08/03/2022 15:08:08.326,1.29792e+06,2203.4,119.00,6.00,-0.001060138,2.499999,-0.00265034,0.0006556264,0.0006487698,0.002142933,0.001881474,2226.554,2203.117,0,98.9542,,
	08/03/2022 19:21:46.859,1.31314e+06,2153.82,123.00,5.00,0.001059845,3.500005,0.00370946,0.0006341517,1.973015E-09,0.002073171,4.932531E-09,2153.53,0.0067,0,0.0003111266,,
	08/03/2022 23:28:38.420,1.32795e+06,2093.17,126.00,6.00,-0.001060151,2.499986,-0.00265036,0.0006224529,0.0006163091,0.00203465,0.001786356,2113.816,2092.873,0,99.01298,,
	08/04/2022 03:31:23.101,1.34251e+06,2061.24,130.00,5.00,0.001060156,3.500007,0.00371055,0.0006068892,1.560469E-09,0.001983371,3.901119E-09,2060.962,0.0053,0,0.0002571258,,
	08/04/2022 07:26:47.567,1.35664e+06,1990.41,133.00,6.00,-0.001059859,2.499999,-0.00264965,0.0005915373,0.0005859715,0.001933583,0.001697048,2008.809,1990.163,0,99.05909,,
	08/04/2022 11:16:56.610,1.37045e+06,1964.62,137.00,5.00,0.001060138,3.500009,0.00371049,0.0005784499,1.972789E-09,0.001890535,4.931961E-09,1964.342,0.0067,0,0.0003410475,,
	08/04/2022 15:02:40.502,1.38399e+06,1909.37,140.00,6.00,-0.001060139,2.49999,-0.00265034,0.0005683943,0.0005621405,0.001857422,0.001627831,1930.16,1909.114,0,98.89975,,
	08/04/2022 18:43:41.231,1.39725e+06,1883.7,144.00,5.00,0.001060185,3.50003,0.00371068,0.000554632,1.70787E-09,0.001812244,4.269591E-09,1883.454,0.0058,0,0.0003079285,,
	08/04/2022 22:19:30.609,1.4102e+06,1823.87,147.00,6.00,-0.001059809,2.49999,-0.00264951,0.000543116,0.0005369888,0.001774578,0.001554438,1844.309,1823.635,0,98.87185,,
	08/05/2022 01:50:10.399,1.42284e+06,1791.59,151.00,5.00,0.001060159,3.500026,0.00371058,0.0005275237,3.562565E-09,0.001723883,8.905833E-09,1791.369,0.0121,0,0.0006753374,,
	08/05/2022 05:15:43.796,1.43517e+06,1741.06,154.00,6.00,-0.001059848,2.499982,-0.0026496,0.000517617,0.0005125288,0.001691575,0.001482502,1757.755,1740.818,0,99.01699,,
	08/05/2022 08:37:12.499,1.44726e+06,1717.43,158.00,5.00,0.001060117,3.50001,0.00371042,0.0005056747,2.443598E-09,0.00165229,6.109582E-09,1717.207,0.0083,0,0.0004832353,,
	08/05/2022 11:54:21.938,1.45909e+06,1670.57,161.00,6.00,-0.001060109,2.499967,-0.00265024,0.0004964101,0.0004918727,0.001622127,0.001422183,1685.828,1670.325,0,99.08595,,
	08/05/2022 15:08:46.900,1.47076e+06,1660.97,165.00,5.00,0.001059842,3.500005,0.00370945,0.0004890454,3.474543E-09,0.001597375,8.686626E-09,1660.75,0.0108,0,0.0007104746,,
	08/05/2022 18:19:58.584,1.48223e+06,1621.18,168.00,6.00,-0.00106011,2.499995,-0.00265027,0.0004823531,0.000477326,0.001575186,0.001380733,1638.062,1620.97,0,98.95779,,
	08/05/2022 21:27:39.113,1.49349e+06,1598.84,172.00,5.00,0.001060147,3.500005,0.00371052,0.0004707374,3.328013E-09,0.001537177,8.319806E-09,1598.629,0.0113,0,0.0007069785,,
	08/06/2022 00:31:07.497,1.5045e+06,1551.88,175.00,6.00,-0.001060143,2.499995,-0.00265035,0.0004613593,0.000456938,0.001506645,0.001320879,1566.812,1551.689,0,99.04168,,
	08/06/2022 03:30:29.106,1.51526e+06,1526.79,179.00,5.00,0.00105984,3.500014,0.00370945,0.0004494924,2.031974E-09,0.001468058,5.080092E-09,1526.562,0.0069,0,0.0004520597,,
	08/06/2022 06:25:53.495,1.52578e+06,1485.25,182.00,6.00,-0.001060138,2.499993,-0.00265034,0.000441703,0.0004372995,0.001442707,0.001263116,1499.937,1485.031,0,99.00307,,
	08/06/2022 09:17:42.913,1.53609e+06,1463.59,186.00,5.00,0.001060143,3.500001,0.0037105,0.0004309388,3.062913E-09,0.001407714,7.656982E-09,1463.378,0.0104,0,0.0007107535,,
	08/06/2022 12:06:17.920,1.54621e+06,1430.33,189.00,6.00,-0.001060074,2.499986,-0.00265017,0.0004248246,0.0004211318,0.001387697,0.00121575,1442.612,1430.119,0,99.13075,,
	08/06/2022 14:52:40.187,1.55619e+06,1423.78,193.00,5.00,0.001059838,3.500018,0.00370945,0.0004191864,3.062361E-09,0.001368845,7.656017E-09,1423.566,0.0104,0,0.0007305488,,
	08/06/2022 17:37:04.632,1.56605e+06,1396.13,196.00,6.00,-0.001060111,2.499999,-0.00265028,0.0004149177,0.0004110784,0.001354548,0.001187329,1408.969,1395.947,0,99.07468,,
	08/06/2022 20:19:06.222,1.57577e+06,1381.96,200.00,5.00,0.001060151,3.500009,0.00371054,0.000406906,3.445093E-09,0.001328283,8.612115E-09,1381.77,0.0108,0,0.0008466557,,
	08/06/2022 20:41:55.025,1.57714e+06,1368.78,200.00,6.00,-0.00106009,2.499986,-0.00265021,0.0004069083,0.0004030164,0.001328291,0.001163786,1381.778,1368.591,0,99.04353,,