Folder: ML-for-Si-Battery-Electrolyte/Cell-test-data/SiMP-LFP-PS3

Note: README.md
# ML-for-Si-Battery-Electrolyte

File: JB5_SiMPs-LFP-POF3-A7_Channel_38_StatisticByCycle.CSV
Date_Time                    ,Test Time (s),Step Time (s),Cycle Index,Step Index,Current (A),Voltage (V),Power (W),Charge Capacity (Ah),Discharge Capacity (Ah),Charge Energy (Wh),Discharge Energy (Wh),Charge Time (s),Discharge Time (s),V_Max_On_Cycle (V),Coulombic Efficiency (%),mAh/g
	05/16/2022 16:52:48.570,178755,60973.6,1,3,-0.000159006,2.499986,-0.000397513,0.003293337,0.002692661,0.01089249,0.007985577,74571.48,60965.67,0,81.76089,,
	05/19/2022 17:48:58.359,441325,6966.817,5,6,-0.001059919,2.499999,-0.0026498,0.00209602,0.00205091,0.006862991,0.00587278,7119.06,6965.847,0,97.84785,,
	05/20/2022 08:56:09.164,495755,6609.98,9,6,-0.001059942,2.499988,-0.00264984,0.001986478,0.001945921,0.006497641,0.005565684,6746.803,6609.133,0,97.95834,,
	05/20/2022 23:21:06.786,547653,6313.6,13,6,-0.001059905,2.499988,-0.00264975,0.001896193,0.001858653,0.006198833,0.005315437,6440.274,6312.74,0,98.0202,,
	05/21/2022 13:03:06.831,596973,5995.09,17,6,-0.001060103,2.499993,-0.00265025,0.001798742,0.00176517,0.005881815,0.005044807,6109.321,5994.282,0,98.13358,,
	05/22/2022 02:08:41.000,644107,5733.93,21,6,-0.001059967,2.499982,-0.0026499,0.001718999,0.001688024,0.005620541,0.004824369,5838.483,5733.21,0,98.19807,,
	05/22/2022 14:39:51.674,689178,5492.35,25,6,-0.00105988,2.499995,-0.00264969,0.001645875,0.001616862,0.005381613,0.004620951,5590.18,5491.663,0,98.23724,,
	05/23/2022 02:40:27.734,732414,5268.11,29,6,-0.001059953,2.499991,-0.00264987,0.00157808,0.001550915,0.005159657,0.004432205,5359.973,5267.44,0,98.27864,,
	05/23/2022 14:11:42.098,773888,5062.31,33,6,-0.001059942,2.499986,-0.00264984,0.001516536,0.001490316,0.004958082,0.004258483,5150.94,5061.654,0,98.27106,,
	05/24/2022 01:15:57.545,813744,4867.57,37,6,-0.001059865,2.499988,-0.00264965,0.001457271,0.001432915,0.0047646,0.004094256,4949.588,4866.928,0,98.32861,,
	05/24/2022 11:55:24.446,852111,4689.342,41,6,-0.001059946,2.499988,-0.00264985,0.001404055,0.00138049,0.004590102,0.003944018,4768.851,4688.713,0,98.32166,,
	05/24/2022 22:11:44.911,889091,4520.95,45,6,-0.001059978,2.499999,-0.00264994,0.001353355,0.001330915,0.004424173,0.003801708,4596.553,4520.348,0,98.34193,,
	05/25/2022 08:08:18.984,924885,4391.78,49,6,-0.001059853,2.499993,-0.00264963,0.001314588,0.001292809,0.004294855,0.003695828,4465.006,4391.181,0,98.34328,,
	05/25/2022 17:41:55.865,959302,4208.785,53,6,-0.001059942,2.499995,-0.00264985,0.001259503,0.001239026,0.004116419,0.003538163,4277.899,4208.287,0,98.37421,,
	05/26/2022 02:55:40.644,992527,4065.15,57,6,-0.001060013,2.499988,-0.00265002,0.00121699,0.001196815,0.003977144,0.003416895,4133.526,4064.665,0,98.3422,,
	05/26/2022 11:51:27.577,1.02467e+06,3935.08,61,6,-0.001059974,2.499978,-0.00264991,0.001177916,0.001158467,0.003849135,0.003306656,4000.802,3934.485,0,98.34884,,
	05/26/2022 20:28:54.702,1.05572e+06,3801.568,65,6,-0.001060002,2.49999,-0.00264999,0.001137742,0.001119114,0.003717663,0.003192902,3864.211,3800.906,0,98.3627,,
	05/27/2022 04:49:42.684,1.08577e+06,3682.838,69,6,-0.001059979,2.499993,-0.00264994,0.00110112,0.001084189,0.003597709,0.003092284,3739.706,3682.249,0,98.46239,,
	05/27/2022 12:55:04.433,1.11489e+06,3571.03,73,6,-0.001059936,2.499995,-0.00264983,0.001067075,0.001051243,0.003486304,0.002997661,3624.161,3570.379,0,98.5163,,
	05/27/2022 20:46:04.367,1.14315e+06,3462.93,77,6,-0.001059958,2.499993,-0.00264989,0.001034926,0.001019408,0.003380831,0.002905594,3515.026,3462.257,0,98.50062,,
	05/28/2022 04:22:45.258,1.17055e+06,3360.88,81,6,-0.001059941,2.499967,-0.00264982,0.001004593,0.0009893441,0.003281514,0.002818838,3411.988,3360.274,0,98.48205,,
	05/28/2022 11:46:32.187,1.19718e+06,3271.93,85,6,-0.001059932,2.499997,-0.00264983,0.0009773589,0.0009631464,0.003191958,0.0027437,3319.476,3271.312,0,98.54582,,
	05/28/2022 18:58:20.666,1223086.902,3181.22,89,6,-0.001059989,2.49998,-0.00264995,0.0009509207,0.0009364755,0.003105199,0.002666939,3229.603,3180.646,0,98.48093,,
	05/29/2022 01:57:33.961,1.24824e+06,3088.16,93,6,-0.001059992,2.499993,-0.00264997,0.0009224161,0.0009091073,0.003012245,0.002587514,3132.855,3087.588,0,98.55718,,
	05/29/2022 08:45:21.288,1.27271e+06,3005.66,97,6,-0.001059955,2.499993,-0.00264988,0.0008976723,0.0008847869,0.002931213,0.002517568,3048.737,3005.113,0,98.56458,,
	05/29/2022 15:23:09.666,1.29658e+06,2932.51,101,6,-0.001059852,2.49999,-0.00264962,0.000875914,0.0008632314,0.002859475,0.002455792,2974.857,2931.997,0,98.55207,,
	05/29/2022 21:50:45.931,1.31983e+06,2857.22,105,6,-0.00105988,2.499999,-0.0026497,0.0008537296,0.0008410572,0.002786673,0.002392103,2899.571,2856.687,0,98.51564,,
	05/30/2022 04:08:25.279,1.34249e+06,2784.97,109,6,-0.001059925,2.499991,-0.0026498,0.0008313694,0.0008198472,0.002713525,0.002330923,2823.658,2784.426,0,98.61407,,
	05/30/2022 10:16:42.501,1.36459e+06,2718.84,113,6,-0.001059936,2.49999,-0.00264983,0.0008112064,0.000800362,0.002647384,0.002275049,2755.152,2718.347,0,98.66319,,
	05/30/2022 16:16:09.141,1.38616e+06,2650.44,117,6,-0.001059897,2.499991,-0.00264973,0.0007912632,0.0007801745,0.002582119,0.002216906,2687.375,2649.906,0,98.59861,,
	05/30/2022 22:06:45.479,1.40719e+06,2588.21,121,6,-0.0010599,2.499995,-0.00264974,0.0007725746,0.0007618931,0.002521028,0.002164466,2623.926,2587.76,0,98.61741,,
	05/31/2022 03:49:05.678,1.42773e+06,2527.373,125,6,-0.001059922,2.499988,-0.00264979,0.0007542252,0.00074401,0.002460824,0.002113022,2561.562,2526.927,0,98.64561,,
	05/31/2022 09:23:13.428,1.44778e+06,2466.75,129,6,-0.001060004,2.49999,-0.00265,0.0007361245,0.0007261861,0.002401559,0.002061877,2500.133,2466.329,0,98.64991,,
	05/31/2022 14:49:43.317,1.46737e+06,2409.565,133,6,-0.001059891,2.49998,-0.00264971,0.0007189466,0.0007092885,0.002345372,0.002013247,2441.723,2409.119,0,98.65662,,
	05/31/2022 20:08:53.353,1.48652e+06,2357.86,137,6,-0.00105987,2.499997,-0.00264967,0.0007036157,0.0006940346,0.002295107,0.001969583,2389.655,2357.372,0,98.63831,,
	06/01/2022 01:21:10.050,1.50526e+06,2304.09,141,6,-0.001059947,2.499993,-0.00264986,0.0006876636,0.0006782439,0.00224285,0.001924399,2335.549,2303.625,0,98.63019,,
	06/01/2022 06:26:05.660,1.52355e+06,2252.21,145,6,-0.001059888,2.499993,-0.00264971,0.0006721849,0.0006629953,0.002192159,0.001880716,2282.969,2251.812,0,98.63288,,
	06/01/2022 11:24:34.607,1.54146e+06,2204.25,149,6,-0.001060071,2.499967,-0.00265014,0.0006578279,0.0006488655,0.002145171,0.001840097,2234.19,2203.915,0,98.63758,,
	06/01/2022 16:16:36.945,1.55898e+06,2156.29,153,6,-0.001059891,2.499976,-0.0026497,0.000643346,0.0006347195,0.002098009,0.001799585,2184.977,2155.9,0,98.65912,,
	06/01/2022 21:02:17.165,1.57612e+06,2109.67,157,6,-0.00105988,2.49998,-0.00264968,0.0006296056,0.000621055,0.002053071,0.0017604,2138.377,2109.288,0,98.64191,,
	06/02/2022 01:42:01.215,1.59291e+06,2066.56,161,6,-0.001059895,2.499988,-0.00264972,0.0006163797,0.000608313,0.002009754,0.001724019,2093.48,2066.171,0,98.69128,,
	06/02/2022 06:15:50.790,1.60934e+06,2025.15,165,6,-0.001059937,2.499993,-0.00264984,0.0006040911,0.0005961708,0.001969604,0.001689355,2051.76,2024.804,0,98.6889,,
	06/02/2022 10:44:06.987,1.62543e+06,1982.63,169,6,-0.001059964,2.499974,-0.00264988,0.0005916057,0.000583671,0.001928704,0.001653599,2009.323,1982.319,0,98.65878,,
	06/02/2022 15:06:51.370,1641197.606,1943,173,6,-0.001059911,2.499993,-0.00264977,0.0005794679,0.0005719339,0.00188909,0.00162005,1968.078,1942.606,0,98.69984,,
	06/02/2022 19:24:25.297,1.65665e+06,1902.424,177,6,-0.001059916,2.499978,-0.00264977,0.0005679295,0.0005600031,0.001851379,0.001585945,1928.908,1902.099,0,98.60433,,
	06/02/2022 23:36:39.479,1.67179e+06,1866.151,181,6,-0.001059916,2.499999,-0.00264979,0.0005571001,0.0005493544,0.001816053,0.001555681,1892.067,1865.836,0,98.60964,,
	06/03/2022 03:44:02.378,1.68663e+06,1830.27,185,6,-0.001059934,2.499991,-0.00264983,0.0005459743,0.0005387837,0.001779616,0.001525494,1854.348,1829.933,0,98.68298,,
	06/03/2022 07:46:42.701,1.70119e+06,1794.19,189,6,-0.001059941,2.499988,-0.00264984,0.0005354101,0.0005281582,0.001745113,0.001495222,1818.451,1793.811,0,98.64554,,
	06/03/2022 11:44:39.673,1.71547e+06,1759.5,193,6,-0.001059983,2.499988,-0.00264994,0.0005250073,0.0005179583,0.001711099,0.001466136,1783.09,1759.204,0,98.65736,,
	06/03/2022 15:38:03.765,1.72947e+06,1725.27,197,6,-0.001059914,2.499993,-0.00264978,0.0005149099,0.0005078473,0.001678308,0.001437153,1748.826,1724.914,0,98.6284,,
	06/03/2022 18:30:09.956,1.7398e+06,1701.55,200,6,-0.001059916,2.499993,-0.00264978,0.0005076646,0.0005008759,0.001654624,0.00141741,1724.219,1701.214,0,98.66277,,

File: JB5_SiMPs-LFP-POF3-A7_Channel_38_StatisticByStep.CSV
Date_Time                    ,Test Time (s),Step Time (s),Cycle Index,Step Index,Current (A),Voltage (V),Power (W),Charge Capacity (Ah),Discharge Capacity (Ah),Charge Energy (Wh),Discharge Energy (Wh),Charge Time (s),Discharge Time (s),V_Max_On_Cycle (V),Coulombic Efficiency (%),mAh/g
	05/15/2022 03:13:33.767,43200,43200,1.00,1.00,0,0.2436438,0,0,0,0,0,0,0,0,0,,
	05/19/2022 11:54:55.109,420081,7670.8,4.00,5.00,0.001059932,3.500003,0.00370977,0.002258114,4.151428E-10,0.007411601,1.037818E-09,7669.722,0.0094,0,1.838449E-05,,
	05/20/2022 01:27:58.903,468865,6773.93,7.00,6.00,-0.001059875,2.499995,-0.00264968,0.002032875,0.001994122,0.006653177,0.005705226,6904.507,6773.062,0,98.09367,,
	05/20/2022 14:25:39.711,515526,6582.27,11.00,5.00,0.001059919,3.500009,0.00370973,0.001937773,2.856655E-09,0.006337493,7.140891E-09,6581.409,0.009699999,0,0.0001474195,,
	05/21/2022 02:50:27.151,560213,6215.02,14.00,6.00,-0.0010599,2.499997,-0.00264975,0.001867998,0.001829569,0.006107369,0.005229524,6344.455,6214.179,0,97.94278,,
	05/21/2022 14:44:02.289,603029,6055.43,18.00,5.00,0.00105996,3.500003,0.00370986,0.00178269,2.709375E-09,0.005828207,6.773798E-09,6054.672,0.0092,0,0.0001519824,,
	05/22/2022 02:08:41.000,644107,5733.93,21.00,6.00,-0.001059967,2.499982,-0.0026499,0.001718999,0.001688024,0.005620541,0.004824369,5838.483,5733.21,0,98.19807,,
	05/22/2022 13:08:19.295,683686,5590.89,25.00,5.00,0.001059942,3.500026,0.00370982,0.001645872,1.531187E-09,0.005381605,3.828288E-09,5590.172,0.0052,0,9.303197E-05,,
	05/22/2022 23:43:18.875,721785,5321.27,28.00,6.00,-0.00105995,2.49998,-0.00264985,0.001595442,0.001566513,0.005216165,0.004476749,5418.875,5320.61,0,98.18675,,
	05/23/2022 09:56:15.488,758562,5200.4,32.00,5.00,0.001059914,3.500001,0.0037097,0.001530893,3.82762E-09,0.005005227,9.569376E-09,5199.672,0.013,0,0.0002500253,,
	05/23/2022 19:47:10.442,794017,4960.36,35.00,6.00,-0.001060008,2.499988,-0.00265001,0.001486846,0.001460276,0.0048612,0.004172495,5050.085,4959.708,0,98.21295,,
	05/24/2022 05:19:04.757,828331,4859.3,39.00,5.00,0.001059967,3.500001,0.00370989,0.001430498,3.179886E-09,0.004676824,7.949638E-09,4858.673,0.0099,0,0.0002222923,,
	05/24/2022 14:31:32.450,861479,4643.95,42.00,6.00,-0.001059948,2.499993,-0.00264986,0.001390676,0.001367132,0.00454645,0.003905777,4723.401,4643.326,0,98.30707,,
	05/24/2022 23:27:41.270,893648,4556.32,46.00,5.00,0.001059937,3.500005,0.00370978,0.001341326,3.739554E-09,0.00438467,9.349072E-09,4555.723,0.0099,0,0.0002787952,,
	05/25/2022 08:08:18.984,924885,4391.78,49.00,6.00,-0.001059853,2.499993,-0.00264963,0.001314588,0.001292809,0.004294855,0.003695828,4465.006,4391.181,0,98.34328,,
	05/25/2022 16:31:47.056,955093,4278.45,53.00,5.00,0.001059917,3.500001,0.00370971,0.001259501,2.914379E-09,0.004116412,7.285478E-09,4277.893,0.009099999,0,0.0002313915,,
	05/26/2022 00:39:01.394,984328,4101.92,56.00,6.00,-0.001059955,2.49999,-0.00264988,0.001227506,0.001207622,0.00401156,0.003447838,4169.224,4101.375,0,98.38017,,
	05/26/2022 08:32:59.860,1.01277e+06,4037,60.00,5.00,0.00105995,3.50001,0.00370984,0.001188408,1.884559E-09,0.003883647,4.710989E-09,4036.435,0.0064,0,0.0001585785,,
	05/26/2022 16:12:16.278,1.04032e+06,3864.79,63.00,6.00,-0.001059981,2.499982,-0.00264993,0.001154829,0.00113777,0.003773824,0.003246197,3922.229,3864.264,0,98.5228,,
	05/26/2022 23:38:56.866,1.06712e+06,3799.84,67.00,5.00,0.00105993,3.500022,0.00370978,0.001118589,2.060855E-09,0.003654978,5.151747E-09,3799.212,0.0063,0,0.000184237,,
	05/27/2022 06:52:29.490,1.09314e+06,3654.36,70.00,6.00,-0.001059967,2.499984,-0.0026499,0.00109285,0.001075768,0.00357053,0.003068051,3711.718,3653.69,0,98.43696,,
	05/27/2022 13:55:06.823,1.11849e+06,3602.36,74.00,5.00,0.00105999,3.500026,0.00370999,0.0010605,1.972474E-09,0.003464406,4.931113E-09,3601.793,0.0067,0,0.0001859947,,
	05/27/2022 20:46:04.367,1.14315e+06,3462.93,77.00,6.00,-0.001059958,2.499993,-0.00264989,0.001034926,0.001019408,0.003380831,0.002905594,3515.026,3462.257,0,98.50062,,
	05/28/2022 03:26:44.357,1.16719e+06,3412.72,81.00,5.00,0.001059983,3.500005,0.00370995,0.001004592,1.766523E-09,0.003281509,4.416005E-09,3411.983,0.006,0,0.0001758448,,
	05/28/2022 09:56:40.094,1.19059e+06,3293.56,84.00,6.00,-0.001059986,2.499993,-0.00264996,0.0009840109,0.0009695558,0.003213961,0.0027622,3341.959,3293.033,0,98.53101,,
	05/28/2022 16:18:06.536,1.21347e+06,3249.58,88.00,5.00,0.001059934,3.500012,0.00370978,0.0009566054,1.707377E-09,0.003123821,4.268478E-09,3248.891,0.0058,0,0.0001784829,,
	05/28/2022 22:29:27.699,1.23575e+06,3131.38,91.00,6.00,-0.001060004,2.499991,-0.00265,0.0009356181,0.0009218138,0.003055392,0.002624268,3177.743,3130.821,0,98.52458,,
	05/29/2022 04:32:05.009,1.25751e+06,3090.8,95.00,5.00,0.001059983,3.500005,0.00370995,0.0009098728,1.825654E-09,0.002971177,4.564155E-09,3090.318,0.0062,0,0.0002006493,,
	05/29/2022 10:25:43.001,1.27873e+06,2989.09,98.00,6.00,-0.001059903,2.499974,-0.00264973,0.0008927604,0.0008799203,0.002914793,0.002504109,3032.025,2988.572,0,98.56175,,
	05/29/2022 16:12:23.609,1.29953e+06,2953.91,102.00,5.00,0.001059984,3.500009,0.00370995,0.0008695995,1.619179E-09,0.00283891,4.047893E-09,2953.372,0.0055,0,0.0001861982,,
	05/29/2022 21:50:45.931,1.31983e+06,2857.22,105.00,6.00,-0.00105988,2.499999,-0.0026497,0.0008537296,0.0008410572,0.002786673,0.002392103,2899.571,2856.687,0,98.51564,,
	05/30/2022 03:22:00.289,1.33971e+06,2824.24,109.00,5.00,0.00105997,3.500014,0.00370991,0.0008313681,1.737433E-09,0.00271352,4.343458E-09,2823.654,0.0059,0,0.0002089848,,
	05/30/2022 08:45:27.918,1.35911e+06,2733.48,112.00,6.00,-0.001059986,2.499988,-0.00264995,0.000816207,0.0008046593,0.002663872,0.002287297,2772.216,2732.86,0,98.58519,,
	05/30/2022 14:02:44.402,1.37815e+06,2705.17,116.00,5.00,0.00105996,3.500005,0.00370987,0.000796347,1.766692E-09,0.002598758,4.416843E-09,2704.7,0.005,0,0.0002218496,,
	05/30/2022 19:12:27.709,1.39673e+06,2617.87,119.00,6.00,-0.001059951,2.49999,-0.00264987,0.0007815811,0.0007706003,0.002550466,0.002189454,2654.524,2617.385,0,98.59506,,
	05/31/2022 00:16:20.533,1.41497e+06,2592.24,123.00,5.00,0.001059998,3.500005,0.00371,0.0007630771,1.648634E-09,0.002489775,4.121342E-09,2591.718,0.0056,0,0.0002160507,,
	05/31/2022 05:13:22.541,1.43279e+06,2510.45,126.00,6.00,-0.001059958,2.499995,-0.00264989,0.0007496099,0.0007390176,0.002445747,0.002098706,2545.909,2510.021,0,98.58697,,
	05/31/2022 10:04:43.861,1.45027e+06,2490.4,130.00,5.00,0.001059972,3.500001,0.0037099,0.0007331301,2.237761E-09,0.002391724,5.594237E-09,2489.956,0.0069,0,0.0003052338,,
	05/31/2022 14:49:43.317,1.46737e+06,2409.57,133.00,6.00,-0.001059891,2.49998,-0.00264971,0.0007189466,0.0007092885,0.002345372,0.002013247,2441.723,2409.119,0,98.65662,,
	05/31/2022 19:29:35.470,1.48416e+06,2390.1,137.00,5.00,0.001059976,3.50001,0.00370993,0.0007036137,1.707698E-09,0.0022951,4.268812E-09,2389.648,0.0058,0,0.0002427039,,
	06/01/2022 00:03:49.827,1.50062e+06,2317.58,140.00,6.00,-0.001059947,2.499999,-0.00264987,0.0006919039,0.0006822252,0.002256784,0.001935756,2349.891,2317.178,0,98.60115,,
	06/01/2022 04:32:45.338,1.51675e+06,2295.33,144.00,5.00,0.001059989,3.500016,0.00370998,0.0006757145,1.972627E-09,0.002203729,4.931318E-09,2294.917,0.0058,0,0.000291932,,
	06/01/2022 08:56:08.269,1.53255e+06,2230.37,147.00,6.00,-0.001059953,2.499991,-0.00264987,0.0006654371,0.0006565544,0.002170089,0.001862232,2260.003,2229.99,0,98.66513,,
	06/01/2022 13:15:05.607,1.54809e+06,2213.63,151.00,5.00,0.001059972,3.500001,0.0037099,0.0006516524,1.855372E-09,0.002124924,4.63824E-09,2213.233,0.0063,0,0.0002847181,,
	06/01/2022 17:28:37.103,1.5633e+06,2145.35,154.00,6.00,-0.001060062,2.499982,-0.00265014,0.0006402183,0.000631616,0.002087714,0.001790826,2174.381,2145.018,0,98.65635,,
	06/01/2022 21:37:46.012,1.57825e+06,2128.82,158.00,5.00,0.001059921,3.500016,0.00370974,0.0006266622,1.589828E-09,0.002043421,3.974675E-09,2128.414,0.0054,0,0.0002536978,,
	06/02/2022 01:42:01.215,1.59291e+06,2066.56,161.00,6.00,-0.001059895,2.499988,-0.00264972,0.0006163797,0.000608313,0.002009754,0.001724019,2093.48,2066.171,0,98.69128,,
	06/02/2022 05:42:05.618,1.60731e+06,2052.16,165.00,5.00,0.001059934,3.500005,0.00370977,0.0006040899,1.295332E-09,0.0019696,3.23816E-09,2051.755,0.0044,0,0.0002144271,,
	06/02/2022 09:37:34.616,1.62144e+06,1993.32,168.00,6.00,-0.001059958,2.499993,-0.00264989,0.0005949217,0.0005867932,0.00193957,0.001662574,2020.599,1992.937,0,98.63369,,
	06/02/2022 13:29:08.193,1.63533e+06,1978.98,172.00,5.00,0.001059942,3.50001,0.00370981,0.0005825807,1.295459E-09,0.001899342,3.238609E-09,1978.623,0.0044,0,0.0002223656,,
	06/02/2022 17:16:18.510,1.64896e+06,1924.89,175.00,6.00,-0.001059932,2.499991,-0.00264982,0.0005744598,0.0005666241,0.00187262,0.001605086,1951.031,1924.573,0,98.63598,,
	06/02/2022 20:59:42.068,1.66237e+06,1907.79,179.00,5.00,0.001059975,3.500016,0.00370993,0.0005615985,5.888772E-10,0.001830724,1.472191E-09,1907.388,0.002,0,0.0001048573,,
	06/03/2022 00:38:56.280,1.67552e+06,1855.71,182.00,6.00,-0.001059933,2.499993,-0.00264983,0.0005537375,0.0005462793,0.001804935,0.001546909,1880.689,1855.401,0,98.65311,,
	06/03/2022 04:14:48.520,1.68847e+06,1846.11,186.00,5.00,0.001059941,3.500001,0.00370979,0.0005434573,1.589955E-09,0.001771347,3.974741E-09,1845.784,0.0045,0,0.000292563,,
	06/03/2022 07:46:42.701,1.70119e+06,1794.19,189.00,6.00,-0.001059941,2.499988,-0.00264984,0.0005354101,0.0005281582,0.001745113,0.001495222,1818.451,1793.811,0,98.64554,,
	06/03/2022 11:15:20.150,1.71371e+06,1783.39,193.00,5.00,0.001059937,3.500012,0.00370979,0.0005250057,1.619397E-09,0.001711094,4.048467E-09,1783.085,0.0055,0,0.0003084532,,
	06/03/2022 14:40:09.275,1.726e+06,1734.2,196.00,6.00,-0.001059944,2.499999,-0.00264986,0.0005175201,0.0005104863,0.001686695,0.001444828,1757.658,1733.859,0,98.64086,,
	06/03/2022 18:01:48.382,1.73809e+06,1724.53,200.00,5.00,0.001059967,3.500026,0.00370991,0.0005076634,1.619277E-09,0.00165462,4.047685E-09,1724.215,0.0055,0,0.0003189667,,
	06/03/2022 18:30:09.956,1.7398e+06,1701.55,200.00,6.00,-0.001059916,2.499993,-0.00264978,0.0005076646,0.0005008759,0.001654624,0.00141741,1724.219,1701.214,0,98.66277,,