Folder: ML-for-Si-Battery-Electrolyte/Cell-test-data/SiMP-LFP-PFF3

Note: README.md
# ML-for-Si-Battery-Electrolyte

File: JB5_SiMP-LFP-PFF3_03C_Channel_89_StatisticByCycle.CSV
Date_Time                    ,Test Time (s),Step Time (s),Cycle Index,Step Index,Current (A),Voltage (V),Power (W),Charge Capacity (Ah),Discharge Capacity (Ah),Charge Energy (Wh),Discharge Energy (Wh),Charge Time (s),Discharge Time (s),V_Max_On_Cycle (V),Coulombic Efficiency (%),mAh/g
	07/21/2022 16:25:16.587,179379,61879,1,3,-0.0001590133,2.499991,-0.000397532,0.003281198,0.002732652,0.01087284,0.008114055,74287.66,61869.98,0,83.28213,,
	07/24/2022 20:11:27.195,452150,7478.92,5,6,-0.001060124,2.499997,-0.00265031,0.002248288,0.002202055,0.007333994,0.006374842,7635.218,7477.792,0,97.94366,,
	07/25/2022 12:18:31.773,510174.5,7021.304,9,6,-0.001059842,2.499993,-0.0026496,0.002108807,0.002067111,0.006876962,0.005978555,7161.342,7020.222,0,98.02279,,
	07/26/2022 03:29:09.707,564812,6615.235,13,6,-0.001059869,2.499995,-0.00264967,0.001984457,0.001947469,0.006474064,0.005633768,6739.169,6614.265,0,98.13614,,
	07/26/2022 17:49:15.817,616419,6262.75,17,6,-0.001060083,2.499991,-0.0026502,0.001877713,0.001843916,0.00612798,0.00533891,6376.688,6261.778,0,98.20008,,
	07/27/2022 07:23:25.118,665268,5940.54,21,6,-0.001059863,2.499991,-0.00264965,0.001779236,0.001748728,0.005809586,0.005065322,6042.214,5939.68,0,98.28535,,
	07/27/2022 20:17:12.612,711695,5650.43,25,6,-0.001060139,2.499988,-0.00265033,0.001692486,0.001663652,0.005527875,0.004822997,5747.65,5649.594,0,98.2963,,
	07/28/2022 08:33:06.644,755849,5378.54,29,6,-0.001060186,2.499997,-0.00265046,0.001610457,0.001583371,0.00526303,0.004591207,5469.022,5377.829,0,98.31812,,
	07/28/2022 20:14:14.753,797917,5127.06,33,6,-0.001060163,2.499997,-0.0026504,0.001534453,0.001509539,0.005016493,0.004379587,5211.035,5126.38,0,98.3764,,
	07/29/2022 07:22:52.719,838035,4889.41,37,6,-0.001059855,2.499997,-0.00264963,0.001461765,0.001439331,0.004781319,0.004177015,4964.217,4888.713,0,98.46532,,
	07/29/2022 18:02:13.551,876396,4696.24,41,6,-0.001060064,2.499982,-0.00265014,0.001403523,0.001382764,0.004591154,0.004017572,4766.566,4695.668,0,98.521,,
	07/30/2022 04:13:26.818,913070,4462.49,45,6,-0.001060161,2.499999,-0.0026504,0.001334618,0.00131385,0.00436894,0.003815515,4532.475,4461.91,0,98.44389,,
	07/30/2022 13:57:25.584,948108,4278.7,49,6,-0.001060136,2.499982,-0.00265032,0.001278616,0.001259762,0.00418667,0.00365979,4342.229,4278.118,0,98.52542,,
	07/30/2022 23:18:51.914,981794.641,4104.64,53,6,-0.001060158,2.49999,-0.00265038,0.001226069,0.001208434,0.004015926,0.003511338,4163.866,4104.088,0,98.56169,,
	07/31/2022 08:17:25.346,1.01411e+06,3954.34,57,6,-0.00105984,2.499997,-0.0026496,0.001180596,0.001164112,0.003867974,0.003383668,4009.382,3953.846,0,98.60378,,
	07/31/2022 16:55:08.074,1.04517e+06,3796.11,61,6,-0.00105983,2.499997,-0.00264957,0.001133137,0.001117692,0.003713641,0.003249084,3848.295,3795.587,0,98.63699,,
	08/01/2022 01:13:46.263,1.07509e+06,3661.88,65,6,-0.001060144,2.499991,-0.00265035,0.001092937,0.001078143,0.003582174,0.00313505,3711.756,3661.415,0,98.64639,,
	08/01/2022 09:14:22.996,1.10393e+06,3532.55,69,6,-0.001059852,2.49999,-0.00264962,0.001054663,0.001039947,0.003457703,0.003024357,3581.666,3532.082,0,98.6047,,
	08/01/2022 16:59:44.921,1.13185e+06,3435.23,73,6,-0.001060097,2.49997,-0.00265021,0.001024842,0.00101146,0.003359631,0.002943332,3480.44,3434.778,0,98.69423,,
	08/02/2022 00:32:53.583,1.15904e+06,3345.47,77,6,-0.001060094,2.499978,-0.00265021,0.000997043,0.0009850273,0.003267762,0.002868244,3386.042,3345.04,0,98.79486,,
	08/02/2022 07:54:04.830,1.18551e+06,3252.92,81,6,-0.001060121,2.499984,-0.00265029,0.0009697075,0.0009577871,0.00317803,0.002789911,3293.261,3252.52,0,98.77072,,
	08/02/2022 14:57:19.150,1.2109e+06,3109.41,85,6,-0.001059852,2.49999,-0.00264962,0.0009250098,0.0009153166,0.003034833,0.00266159,3141.346,3108.986,0,98.95209,,
	08/02/2022 21:46:42.590,1.23547e+06,3019,89,6,-0.001060102,2.49999,-0.00265024,0.000899018,0.000888926,0.002949837,0.002585792,3053.078,3018.621,0,98.87743,,
	08/03/2022 04:25:09.711,1.25937e+06,2937.54,93,6,-0.001059837,2.49999,-0.00264958,0.0008744488,0.0008648415,0.002869434,0.002514996,2969.675,2937.123,0,98.90132,,
	08/03/2022 10:52:50.715,1.28263e+06,2862.092,97,6,-0.001059828,2.49999,-0.00264956,0.0008521192,0.0008426431,0.002796617,0.00245039,2893.831,2861.729,0,98.88794,,
	08/03/2022 17:11:44.267,1.30537e+06,2795.5,101,6,-0.001059847,2.499999,-0.00264962,0.0008335126,0.0008229803,0.002735374,0.00239385,2830.636,2795.141,0,98.7364,,
	08/03/2022 23:20:19.458,1.32748e+06,2728.47,105,6,-0.001060131,2.49999,-0.00265032,0.0008116326,0.0008033675,0.002664222,0.002336676,2756.388,2728.087,0,98.98167,,
	08/04/2022 05:22:10.032,1.34919e+06,2667.11,109,6,-0.001059812,2.499982,-0.00264951,0.0007938602,0.0007851844,0.002605911,0.002283236,2696.059,2666.74,0,98.90714,,
	08/04/2022 11:13:48.878,1.37029e+06,2602.04,113,6,-0.001060097,2.49999,-0.00265023,0.0007742794,0.0007661374,0.002542232,0.002227742,2629.535,2601.685,0,98.94846,,
	08/04/2022 16:59:19.581,1.39102e+06,2557.07,117,6,-0.001059849,2.49999,-0.00264961,0.0007602564,0.00075285,0.002496028,0.002189166,2581.895,2556.727,0,99.0258,,
	08/04/2022 22:37:52.313,1.41134e+06,2507.57,121,6,-0.001060128,2.499995,-0.00265031,0.0007449994,0.0007382847,0.00244595,0.002146594,2530.108,2507.24,0,99.09869,,
	08/05/2022 04:08:09.283,1.43115e+06,2443.56,125,6,-0.001060147,2.49999,-0.00265036,0.0007252299,0.0007193341,0.002381893,0.002090283,2462.9,2443.249,0,99.18704,,
	08/05/2022 09:31:21.672,1.45054e+06,2394.54,129,6,-0.001059875,2.499999,-0.00264969,0.000711703,0.0007049811,0.002337448,0.002048637,2416.957,2394.218,0,99.05552,,
	08/05/2022 14:49:07.745,1.46961e+06,2367.4,133,6,-0.001060069,2.499986,-0.00265016,0.0007024211,0.0006970356,0.002306621,0.002026596,2385.48,2367.09,0,99.23331,,
	08/05/2022 20:03:41.159,1.48848e+06,2333.02,137,6,-0.001060083,2.49999,-0.0026502,0.0006931771,0.0006869293,0.002275873,0.001997686,2354.089,2332.709,0,99.09867,,
	08/06/2022 01:11:58.831,1.50698e+06,2278.74,141,6,-0.001060098,2.499991,-0.00265024,0.0006780927,0.0006709535,0.002226851,0.001950211,2302.805,2278.452,0,98.94717,,
	08/06/2022 06:12:47.565,1525030.292,2229.69,145,6,-0.001060155,2.499997,-0.00265038,0.0006617908,0.0006564579,0.00217396,0.001906932,2247.489,2229.399,0,99.19417,,
	08/06/2022 11:07:19.468,1.5427e+06,2180.164,149,6,-0.001060169,2.499993,-0.00265042,0.0006483156,0.0006419276,0.002130223,0.001864143,2201.65,2179.874,0,99.01469,,
	08/06/2022 15:57:27.536,1.56011e+06,2164.59,153,6,-0.001060077,2.499991,-0.00265018,0.00064244,0.0006373438,0.002110341,0.001851915,2181.725,2164.329,0,99.20675,,
	08/06/2022 20:45:30.388,1.57739e+06,2137.56,157,6,-0.001060091,2.499993,-0.00265022,0.0006342492,0.0006293611,0.002083095,0.001828939,2153.973,2137.251,0,99.22929,,
	08/07/2022 01:28:03.031,1.59435e+06,2091.42,161,6,-0.001060075,2.499997,-0.00265018,0.0006213786,0.0006157846,0.002041366,0.001788481,2110.188,2091.118,0,99.09975,,
	08/07/2022 06:04:58.981,1.61096e+06,2055.3,165,6,-0.00106014,2.49997,-0.00265032,0.0006100984,0.000605135,0.002004793,0.001756755,2071.891,2054.963,0,99.18645,,
	08/07/2022 10:36:44.102,1.62727e+06,2014.55,169,6,-0.001060184,2.49999,-0.00265045,0.0005979703,0.0005931422,0.001965349,0.001721313,2030.685,2014.248,0,99.19257,,
	08/07/2022 15:04:32.864,1.64334e+06,1997.74,173,6,-0.001060107,2.499982,-0.00265025,0.0005920846,0.0005881975,0.001945664,0.001707657,2010.764,1997.43,0,99.34348,,
	08/07/2022 19:30:03.311,1.65927e+06,1971.18,177,6,-0.001060155,2.499993,-0.00265038,0.0005852414,0.0005803661,0.00192304,0.001684867,1987.469,1970.829,0,99.16695,,
	08/07/2022 23:51:32.855,1.67496e+06,1940.78,181,6,-0.001060161,2.499997,-0.0026504,0.0005764774,0.0005714158,0.001894452,0.001658448,1957.713,1940.431,0,99.12197,,
	08/08/2022 04:08:23.930,1.69037e+06,1906.56,185,6,-0.001060165,2.499978,-0.00265039,0.0005658945,0.0005613299,0.001860072,0.001628409,1921.717,1906.261,0,99.1934,,
	08/08/2022 08:20:53.007,1.70552e+06,1876.01,189,6,-0.001060156,2.499999,-0.00265039,0.0005559437,0.0005522856,0.001827703,0.001601551,1887.946,1875.667,0,99.34201,,
	08/08/2022 12:30:10.623,1.72047e+06,1858.69,193,6,-0.00106013,2.499988,-0.00265031,0.0005509281,0.0005472579,0.001811055,0.001587395,1870.957,1858.419,0,99.33381,,
	08/08/2022 16:38:02.530,1.73535e+06,1842.96,197,6,-0.001060097,2.499997,-0.00265024,0.0005470504,0.0005426219,0.001798008,0.001574235,1857.834,1842.695,0,99.19047,,
	08/08/2022 19:42:24.355,1.74641e+06,1832.15,200,6,-0.001060133,2.499995,-0.00265033,0.000543882,0.0005394239,0.001787429,0.001565092,1846.998,1831.812,0,99.18031,,

File: JB5_SiMP-LFP-PFF3_03C_Channel_89_StatisticByStep.CSV
Date_Time                    ,Test Time (s),Step Time (s),Cycle Index,Step Index,Current (A),Voltage (V),Power (W),Charge Capacity (Ah),Discharge Capacity (Ah),Charge Energy (Wh),Discharge Energy (Wh),Charge Time (s),Discharge Time (s),V_Max_On_Cycle (V),Coulombic Efficiency (%),mAh/g
	07/20/2022 02:35:37.274,43200,43200,1.00,1.00,0,0.2391911,0,0,0,0,0,0,0,0,0,,
	07/24/2022 13:51:34.222,429357,8189.92,4.00,5.00,0.00106011,3.500024,0.00371041,0.002411278,4.24024E-10,0.007885674,1.060131E-09,8188.633,0.0083,0,1.758503E-05,,
	07/25/2022 04:22:10.667,481593,7232.28,7.00,6.00,-0.00106013,2.499997,-0.00265032,0.002172194,0.002129424,0.007084142,0.006159233,7376.763,7231.187,0,98.03105,,
	07/25/2022 18:07:06.696,531089,6953.01,11.00,5.00,0.001060056,3.500009,0.00371021,0.002047051,1.030646E-09,0.006675913,2.576492E-09,6951.891,0.0023,0,5.034783E-05,,
	07/26/2022 07:08:39.475,577982,6523.67,14.00,6.00,-0.001059893,2.499999,-0.00264973,0.001956763,0.001920437,0.006384122,0.005556458,6645.062,6522.7,0,98.14357,,
	07/26/2022 19:34:05.192,622708,6289.34,18.00,5.00,0.001060068,3.500007,0.00371025,0.001851717,2.414682E-09,0.00604339,6.036716E-09,6288.425,0.0082,0,0.0001304023,,
	07/27/2022 07:23:25.118,665268,5940.54,21.00,6.00,-0.001059863,2.499991,-0.00264965,0.001779236,0.001748728,0.005809586,0.005065322,6042.214,5939.68,0,98.28535,,
	07/27/2022 18:43:02.154,706045,5748.52,25.00,5.00,0.001060077,3.500007,0.00371028,0.001692484,2.826871E-09,0.005527867,7.066963E-09,5747.643,0.0096,0,0.000167025,,
	07/28/2022 05:32:18.344,745001,5445.34,28.00,6.00,-0.001060133,2.499999,-0.00265033,0.00162967,0.00160313,0.005325404,0.004647873,5534.239,5444.617,0,98.37147,,
	07/28/2022 15:55:33.131,782396,5264.01,32.00,5.00,0.00106003,3.500016,0.00371012,0.001549838,1.060096E-09,0.005067094,2.650423E-09,5263.325,0.0036,0,6.840048E-05,,
	07/29/2022 01:52:27.229,818210,5004.64,35.00,6.00,-0.00105984,2.499986,-0.00264959,0.001496754,0.001473317,0.004895013,0.004274401,5083.086,5004.006,0,98.43411,,
	07/29/2022 11:26:16.238,852639,4853.07,39.00,5.00,0.001060022,3.500003,0.00371008,0.00142885,1.913413E-09,0.004674434,4.783767E-09,4852.439,0.0065,0,0.0001339128,,
	07/29/2022 20:38:06.779,885750,4636.13,42.00,6.00,-0.001060117,2.499993,-0.00265029,0.001388788,0.001365054,0.004542753,0.003965807,4716.471,4635.517,0,98.29105,,
	07/30/2022 05:28:09.928,917553,4483.08,46.00,5.00,0.001060084,3.500009,0.0037103,0.001319913,1.060343E-09,0.004321144,2.650727E-09,4482.503,0.0036,0,8.03343E-05,,
	07/30/2022 13:57:25.584,948108,4278.7,49.00,6.00,-0.001060136,2.499982,-0.00265032,0.001278616,0.001259762,0.00418667,0.00365979,4342.229,4278.118,0,98.52542,,
	07/30/2022 22:10:27.246,977690,4164.45,53.00,5.00,0.001060002,3.500012,0.00371002,0.001226068,2.620101E-09,0.004015922,6.549816E-09,4163.862,0.0079,0,0.0002136995,,
	07/31/2022 06:04:40.997,1.00614e+06,3992.09,56.00,6.00,-0.00105986,2.499995,-0.00264964,0.001192567,0.001175261,0.003906699,0.003415933,4050.088,3991.563,0,98.54886,,
	07/31/2022 13:43:51.423,1.03369e+06,3885.96,60.00,5.00,0.00106003,3.500009,0.00371011,0.001144092,3.357342E-09,0.00374907,8.393391E-09,3885.448,0.0114,0,0.0002934504,,
	07/31/2022 21:06:38.697,1.06026e+06,3733.16,63.00,6.00,-0.001060145,2.499991,-0.00265035,0.001113617,0.001099178,0.003649642,0.003196646,3781.985,3732.661,0,98.70342,,
	08/01/2022 04:16:13.939,1.08604e+06,3646.43,67.00,5.00,0.001060043,3.500009,0.00371016,0.00107358,3.20945E-09,0.003519546,8.022995E-09,3645.94,0.0099,0,0.0002989485,,
	08/01/2022 11:11:54.231,1.11098e+06,3505.2,70.00,6.00,-0.001060103,2.499974,-0.00265023,0.001043987,0.001032017,0.00342293,0.003000742,3545.491,3504.753,0,98.85345,,
	08/01/2022 17:57:20.153,1.1353e+06,3455.2,74.00,5.00,0.001060077,3.500001,0.00371027,0.001017277,2.945147E-09,0.003334606,7.362743E-09,3454.741,0.01,0,0.0002895126,,
	08/02/2022 00:32:53.583,1.15904e+06,3345.47,77.00,6.00,-0.001060094,2.499978,-0.00265021,0.000997043,0.0009850273,0.003267762,0.002868244,3386.042,3345.04,0,98.79486,,
	08/02/2022 06:59:51.884,1.18225e+06,3293.71,81.00,5.00,0.001060024,3.500014,0.0037101,0.0009697065,2.738737E-09,0.003178027,6.848055E-09,3293.258,0.0085,0,0.0002824295,,
	08/02/2022 13:13:07.962,1.20465e+06,3130.59,84.00,6.00,-0.001060165,2.49997,-0.00265038,0.0009324509,0.000921707,0.003058981,0.002680029,3166.607,3130.171,0,98.84777,,
	08/02/2022 19:14:49.957,1.22635e+06,3075.05,88.00,5.00,0.001060044,3.500001,0.00371016,0.0009053518,2.473396E-09,0.002970442,6.183541E-09,3074.589,0.0084,0,0.0002731972,,
	08/03/2022 01:07:30.101,1.24751e+06,2985.87,91.00,6.00,-0.001060153,2.499995,-0.00265038,0.0008888167,0.000879151,0.002916219,0.00255715,3018.511,2985.458,0,98.91253,,
	08/03/2022 06:51:56.621,1.26818e+06,2935.22,95.00,5.00,0.001060086,3.500007,0.00371031,0.000864185,2.944599E-09,0.002835972,7.361068E-09,2934.816,0.01,0,0.0003407371,,
	08/03/2022 12:28:16.004,1.28836e+06,2849.28,98.00,6.00,-0.001060144,2.499974,-0.00265033,0.0008467195,0.0008389394,0.002779104,0.002439969,2875.547,2848.919,0,99.08116,,
	08/03/2022 17:58:23.812,1.30817e+06,2799.51,102.00,5.00,0.001060058,3.500003,0.00371021,0.0008242285,2.914452E-09,0.002705418,7.285664E-09,2799.138,0.008599999,0,0.0003535975,,
	08/03/2022 23:20:19.458,1.32748e+06,2728.47,105.00,6.00,-0.001060131,2.49999,-0.00265032,0.0008116326,0.0008033675,0.002664222,0.002336676,2756.388,2728.087,0,98.98167,,
	08/04/2022 04:37:42.895,1.34653e+06,2696.4,109.00,5.00,0.001060054,3.500009,0.0037102,0.000793858,2.914445E-09,0.002605903,7.284643E-09,2696.052,0.0099,0,0.0003671242,,
	08/04/2022 09:46:36.929,1.36506e+06,2615.56,112.00,6.00,-0.001060147,2.499988,-0.00265035,0.000777579,0.0007701247,0.002553103,0.002238769,2640.736,2615.202,0,99.04134,,
	08/04/2022 14:50:49.673,1.38331e+06,2596.94,116.00,5.00,0.001060032,3.50001,0.00371012,0.000764585,2.914519E-09,0.002510079,7.285367E-09,2596.604,0.0099,0,0.0003811896,,
	08/04/2022 19:49:27.980,1.40123e+06,2533.6,119.00,6.00,-0.001060142,2.499978,-0.00265033,0.0007531511,0.000745995,0.002472583,0.002169508,2557.755,2533.266,0,99.04984,,
	08/05/2022 00:42:53.536,1.41884e+06,2496.83,123.00,5.00,0.001060012,3.500003,0.00371005,0.0007351086,5.889938E-10,0.002413893,1.472437E-09,2496.472,0.0009,0,8.012338E-05,,
	08/05/2022 05:29:35.100,1.43604e+06,2431.12,126.00,6.00,-0.001060149,2.499986,-0.00265036,0.0007226937,0.0007157645,0.002373636,0.002079996,2454.313,2430.805,0,99.0412,,
	08/05/2022 10:11:27.273,1.45295e+06,2405.57,130.00,5.00,0.001060116,3.500009,0.00371042,0.0007082543,4.534378E-09,0.002326383,1.133541E-08,2405.251,0.0154,0,0.0006402188,,
	08/05/2022 14:49:07.745,1.46961e+06,2367.4,133.00,6.00,-0.001060069,2.499986,-0.00265016,0.0007024211,0.0006970356,0.002306621,0.002026596,2385.48,2367.09,0,99.23331,,
	08/05/2022 19:24:48.116,1.48615e+06,2354.4,137.00,5.00,0.001060024,3.500001,0.00371009,0.0006931748,1.413632E-09,0.002275865,3.534053E-09,2354.082,0.0048,0,0.0002039359,,
	08/05/2022 23:55:36.945,1.5024e+06,2295.53,140.00,6.00,-0.001060126,2.49999,-0.0026503,0.0006819596,0.0006759107,0.002239318,0.001964914,2315.964,2295.258,0,99.11301,,
	08/06/2022 04:20:50.406,1.51831e+06,2258.66,144.00,5.00,0.001060054,3.500009,0.0037102,0.0006649951,2.885894E-09,0.002184349,7.214496E-09,2258.362,0.0098,0,0.0004339722,,
	08/06/2022 08:40:52.456,1.53392e+06,2205,147.00,6.00,-0.00105988,2.499986,-0.00264969,0.0006549179,0.0006491766,0.002151626,0.001885391,2224.073,2204.726,0,99.12336,,
	08/06/2022 12:56:22.816,1.54925e+06,2183.22,151.00,5.00,0.001060102,3.500007,0.00371036,0.0006428001,3.062793E-09,0.002111987,7.656515E-09,2182.956,0.0092,0,0.0004764767,,
	08/06/2022 17:09:50.530,1.56445e+06,2163.59,154.00,6.00,-0.001060072,2.49999,-0.00265017,0.0006416321,0.0006370295,0.002107431,0.001851442,2179.018,2163.309,0,99.28268,,
	08/06/2022 21:21:16.247,1.57954e+06,2145.83,158.00,5.00,0.001060079,3.500003,0.00371028,0.0006317749,2.857281E-09,0.002075071,7.143233E-09,2145.494,0.009699999,0,0.0004522626,,
	08/07/2022 01:28:03.031,1.59435e+06,2091.42,161.00,6.00,-0.001060075,2.499997,-0.00265018,0.0006213786,0.0006157846,0.002041366,0.001788481,2110.188,2091.118,0,99.09975,,
	08/07/2022 05:30:43.658,1.60891e+06,2072.2,165.00,5.00,0.001060065,3.500028,0.00371026,0.000610096,3.71137E-09,0.002004785,9.277445E-09,2071.883,0.0126,0,0.0006083256,,
	08/07/2022 09:29:18.515,1.62322e+06,2023.22,168.00,6.00,-0.00106014,2.499997,-0.00265035,0.0006014101,0.0005957073,0.001976574,0.001728834,2042.343,2022.917,0,99.05177,,
	08/07/2022 13:24:26.125,1.63733e+06,2013.58,172.00,5.00,0.001060079,3.500018,0.0037103,0.000592843,2.031925E-09,0.001948403,5.079503E-09,2013.304,0.0056,0,0.0003427424,,
	08/07/2022 17:17:47.474,1.65133e+06,1987.5,175.00,6.00,-0.001060091,2.499999,-0.00265023,0.0005899936,0.0005851707,0.001938583,0.001699128,2003.661,1987.165,0,99.18255,,
	08/07/2022 21:08:41.643,1.66518e+06,1974.05,179.00,5.00,0.001060035,3.500001,0.00371012,0.0005811513,2.267508E-09,0.001909638,5.668791E-09,1973.636,0.0065,0,0.0003901751,,
	08/08/2022 00:56:12.065,1.67883e+06,1931.34,182.00,6.00,-0.001060191,2.499991,-0.00265047,0.0005734657,0.0005685792,0.00188467,0.001649969,1947.467,1930.979,0,99.1479,,
	08/08/2022 04:40:17.690,1.69228e+06,1913.73,186.00,5.00,0.001060085,3.500026,0.00371033,0.0005634215,2.4445E-09,0.001852007,6.11106E-09,1913.381,0.0083,0,0.0004338671,,
	08/08/2022 08:20:53.007,1.70552e+06,1876.01,189.00,6.00,-0.001060156,2.499999,-0.00265039,0.0005559437,0.0005522856,0.001827703,0.001601551,1887.946,1875.667,0,99.34201,,
	08/08/2022 11:59:11.912,1.71861e+06,1871.27,193.00,5.00,0.001060075,3.500009,0.00371027,0.0005509263,1.236818E-09,0.001811049,3.09192E-09,1870.951,0.0042,0,0.0002244979,,
	08/08/2022 15:36:21.420,1.73164e+06,1849.91,196.00,6.00,-0.001060138,2.49999,-0.00265033,0.0005489807,0.0005446677,0.001804273,0.001580093,1864.312,1849.614,0,99.21437,,
	08/08/2022 19:11:52.183,1.74457e+06,1847.32,200.00,5.00,0.001060082,3.500016,0.0037103,0.0005438805,2.591431E-09,0.001787424,6.477799E-09,1846.993,0.0088,0,0.0004764707,,
	08/08/2022 19:42:24.355,1.74641e+06,1832.15,200.00,6.00,-0.001060133,2.499995,-0.00265033,0.000543882,0.0005394239,0.001787429,0.001565092,1846.998,1831.812,0,99.18031,,