Folder: ML-for-Si-Battery-Electrolyte/Cell-test-data/SiMP-LFP-PFOF1_ERROR

Note: README.md
# ML-for-Si-Battery-Electrolyte

File: JB7_SiMP-LFP-PFOF1_Channel_80_Wb_1.CSV
Data Point,Date Time,Test Time (s),Step Time (s),Cycle Index,Step Index,Current (A),Voltage (V),Power (W),Charge Capacity (Ah),Discharge Capacity (Ah),Charge Energy (Wh),Discharge Energy (Wh),ACR (Ohm),dV/dt (V/s),Internal Resistance (Ohm),dQ/dV (Ah/V),dV/dQ (V/Ah)
1,	08/04/2022 13:58:24.492,300.0004,300.0003,1,1,0,0.001702309,0,0,0,0,0,,-4.25323e-07,,0,0
117,	08/04/2022 23:38:24.492,35100,35100,1,1,0,0.001745224,0,0,0,0,0,,2.38549e-06,,0,0
233,	08/05/2022 03:21:24.761,48480.3,5280.18,1,2,0.0001589877,0.001734734,2.75801e-07,0.0002331613,0,0.0000003962361,0,,1.57881e-06,,,
349,	08/05/2022 05:17:25.028,55440.5,12240.5,1,2,0.0001589871,0.001707077,2.71403e-07,0.0005405081,0,0.0000009190073,0,,7.10734e-06,,0,0
465,	08/05/2022 07:13:25.290,62400.8,19200.7,1,2,0.0001589876,0.001689911,2.68675e-07,0.0008478542,0,0.000001441381,0,,-8.13903e-07,,,
581,	08/05/2022 09:09:25.536,69361,26161,1,2,0.0001589863,0.001685143,2.67915e-07,0.001155202,0,0.000001963489,0,,-2.96935e-06,,0,0
697,	08/05/2022 11:05:25.780,76321.3,33121.2,1,2,0.0001589922,0.001639366,2.60646e-07,0.001462547,0,0.000002486283,0,,4.40789e-06,,,
813,	08/05/2022 13:01:26.033,83281.5,40081.5,1,2,0.0001589902,0.001647949,2.62008e-07,0.001769894,0,0.000003009899,0,,-3.78893e-06,,0,0
929,	08/05/2022 14:57:26.274,90241.8,47041.7,1,2,0.000158991,0.001728058,2.74746e-07,0.002077242,0,0.000003533002,0,,-5.98404e-06,,,
1045,	08/05/2022 16:53:26.533,97202,54002,1,2,0.0001589902,0.001717567,2.73076e-07,0.002384597,0,0.000004056418,0,,1.21789e-05,,0,0
1161,	08/05/2022 18:49:26.777,104162.285,60962.2,1,2,0.0001589936,0.001755714,2.79147e-07,0.002691951,0,0.000004580274,0,,-3.8797e-06,,,
1277,	08/05/2022 20:45:27.041,111123,67922.5,1,2,0.0001589929,0.001683235,2.67622e-07,0.002999302,0,0.000005103778,0,,1.06746e-05,,0,0
1393,	08/05/2022 22:41:27.296,118083,74882.7,1,2,0.0001589952,0.001743317,2.77179e-07,0.003306652,0,0.000005626981,0,,-2.01685e-06,,,
1509,	08/06/2022 00:37:27.560,125043,81843,1,2,0.0001589915,0.001708984,2.71714e-07,0.003614011,0,0.000006150108,0,,9.01142e-06,,0,0
1625,	08/06/2022 02:33:27.821,132003,88803.2,1,2,0.0001589936,0.001667023,2.65046e-07,0.00392137,0,0.000006672453,0,,-2.63833e-06,,,
1741,	08/06/2022 04:29:28.077,138964,95763.5,1,2,0.0001589941,0.001721382,2.7369e-07,0.00422873,0,0.000007194958,0,,1.60929e-06,,0,0
1857,	08/06/2022 06:25:28.319,145924,102724,1,2,0.0001589955,0.001694679,2.69446e-07,0.004536089,0,0.000007717383,0,,5.67577e-06,,,
1973,	08/06/2022 08:21:28.579,152884,109684,1,2,0.0001589948,0.001710892,2.72023e-07,0.004843447,0,0.000008240033,0,,-3.40009e-06,,0,0
2089,	08/06/2022 10:17:28.830,159844,116644,1,2,0.0001589967,0.001710892,2.72026e-07,0.005150804,0,0.000008762029,0,,-4.20583e-06,,0,0
2205,	08/06/2022 12:13:29.080,166804.588,123605,1,2,0.0001589938,0.001731873,2.75357e-07,0.005458164,0,0.000009284771,0,,-2.92751e-06,,,
2321,	08/06/2022 14:09:29.304,173765,130565,1,2,0.0001589946,0.001696587,2.69748e-07,0.005765527,0,0.000009807738,0,,-5.87048e-06,,0,0
2437,	08/06/2022 16:05:29.540,180725,137525,1,2,0.0001589929,0.001703262,2.70807e-07,0.006072887,0,0.00001033137,0,,3.06155e-06,,,
2553,	08/06/2022 18:01:29.786,187685.294,144485,1,2,0.0001589962,0.001802444,2.86582e-07,0.006380244,0,0.00001085581,0,,5.24048e-06,,0,0
2669,	08/06/2022 19:57:30.043,194646,151445.466,1,2,0.0001589925,0.001729965,2.75051e-07,0.006687599,0,0.00001137985,0,,-7.85604e-06,,,
2785,	08/06/2022 21:53:30.283,201606,158406,1,2,0.0001589899,0.001731873,2.7535e-07,0.006994953,0,0.000011904,0,,-4.62359e-06,,0,0
2901,	08/06/2022 23:49:30.534,208566.042,165366,1,2,0.0001589827,0.001738548,2.76399e-07,0.007302305,0,0.00001242824,0,,-5.64591e-06,,,
3017,	08/07/2022 01:45:30.768,215526,172326,1,2,0.0001589906,0.001662254,2.64283e-07,0.007609651,0,0.000012952,0,,-6.04276e-06,,0,0
3133,	08/07/2022 03:41:30.995,222487,179286,1,2,0.0001589908,0.001710892,2.72016e-07,0.007916996,0,0.0000134755,0,,-2.99511e-06,,,
3249,	08/07/2022 05:37:31.244,229446.752,186247,1,2,0.0001589886,0.00166893,2.65341e-07,0.008224345,0,0.00001399928,0,,-1.55676e-05,,0,0
3365,	08/07/2022 07:33:31.507,236407,193207,1,2,0.0001589896,0.001688004,2.68375e-07,0.008531698,0,0.00001452258,0,,2.41976e-06,,,
3481,	08/07/2022 09:29:31.766,243367,200167,1,2,0.0001589914,0.001702309,2.70652e-07,0.008839049,0,0.00001504555,0,,-7.32133e-06,,0,0
3597,	08/07/2022 11:25:32.020,250328,207127,1,2,0.0001589942,0.001734734,2.75813e-07,0.009146406,0,0.0000155692,0,,-5.929e-07,,,
3713,	08/07/2022 13:21:32.272,257288,214088,1,2,0.0001589976,0.001722336,2.73847e-07,0.009453763,0,0.00001609309,0,,7.04054e-07,,0,0
3829,	08/07/2022 15:17:32.516,264248,221048,1,2,0.000158998,0.001703262,2.70815e-07,0.009761123,0,0.00001661679,0,,-8.82954e-06,,,
3945,	08/07/2022 17:13:32.760,271208,228008,1,2,0.0001589969,0.001734734,2.75817e-07,0.01006848,0,0.00001714127,0,,4.45905e-06,,0,0
4061,	08/07/2022 19:09:33.027,278169,234968,1,2,0.0001589971,0.001689911,2.68691e-07,0.01037584,0,0.00001766527,0,,-1.94184e-06,,,
4177,	08/07/2022 21:05:33.286,285129,241929,1,2,0.0001589876,0.001713753,2.72465e-07,0.01068319,0,0.0000181895,0,,-2.68748e-06,,0,0
4293,	08/07/2022 23:01:33.524,292089,248889,1,2,0.0001589948,0.001628876,2.58983e-07,0.01099054,0,0.00001871351,0,,1.65699e-06,,,
4409,	08/08/2022 00:57:33.808,299049,255849,1,2,0.0001589883,0.00170517,2.71102e-07,0.01129789,0,0.0000192367,0,,-3.72192e-07,,0,0
4525,	08/08/2022 02:53:34.078,306010,262810,1,2,0.0001589891,0.001670837,2.65645e-07,0.01160524,0,0.00001976015,0,,-7.548e-06,,,
4641,	08/08/2022 04:49:34.345,312970,269770,1,2,0.0001589896,0.001721382,2.73682e-07,0.01191259,0,0.00002028343,0,,-5.28122e-06,,,
4757,	08/08/2022 06:45:34.593,319930,276730,1,2,0.000158986,0.001667023,2.65033e-07,0.01221994,0,0.00002080621,0,,5.00758e-06,,0,0
4873,	08/08/2022 08:41:34.836,326890,283690,1,2,0.0001589853,0.001707077,2.714e-07,0.01252728,0,0.00002132876,0,,2.61191e-06,,,
4989,	08/08/2022 10:37:35.079,333851,290650.502,1,2,0.00015899,0.001700401,2.70347e-07,0.01283463,0,0.00002185124,0,,9.14425e-06,,0,0
5105,	08/08/2022 12:33:35.322,340810.83,297611,1,2,0.0001589868,0.0017519,2.78529e-07,0.01314198,0,0.00002237452,0,,5.21923e-06,,,
5221,	08/08/2022 14:29:35.571,347771,304571,1,2,0.0001589882,0.001702309,2.70647e-07,0.01344934,0,0.0000228973,0,,-3.61811e-06,,0,0
5337,	08/08/2022 16:25:35.840,354731,311531,1,2,0.0001589908,0.00166893,2.65345e-07,0.01375669,0,0.00002342005,0,,-4.39176e-06,,,
5453,	08/08/2022 18:21:36.085,361692,318492,1,2,0.0001589927,0.001717567,2.73081e-07,0.01406404,0,0.00002394222,0,,-4.80622e-06,,0,0
5569,	08/08/2022 20:17:36.328,368652,325452,1,2,0.0001589882,0.001698494,2.70041e-07,0.01437139,0,0.00002446494,0,,-7.0122e-07,,,
5685,	08/08/2022 22:13:36.574,375612,332412,1,2,0.0001589919,0.001696587,2.69744e-07,0.01467874,0,0.00002498767,0,,8.53725e-07,,0,0
5801,	08/09/2022 00:09:36.825,382572,339372.248,1,2,0.0001589974,0.001750946,2.78396e-07,0.0149861,0,0.00002551054,0,,6.60387e-06,,,
5917,	08/09/2022 02:05:37.075,389533,346332,1,2,0.0001589964,0.001772881,2.81882e-07,0.01529346,0,0.00002603317,0,,4.91092e-06,,0,0
6033,	08/09/2022 04:01:37.348,396493,353293,1,2,0.0001589919,0.001708984,2.71715e-07,0.01560082,0,0.0000265552,0,,1.11365e-05,,,
6149,	08/09/2022 05:57:37.611,403453,360253,1,2,0.0001589939,0.001641273,2.60952e-07,0.01590817,0,0.00002707732,0,,-7.38684e-06,,0,0
6265,	08/09/2022 07:53:37.846,410413,367213,1,2,0.0001589885,0.001710892,2.72012e-07,0.01621553,0,0.00002759859,0,,1.1362e-05,,,
6381,	08/09/2022 09:49:38.063,417374,374173,1,2,0.0001589908,0.001647949,2.62009e-07,0.01652288,0,0.0000281206,0,,-3.52246e-06,,0,0
6497,	08/09/2022 11:45:38.304,424334,381134,1,2,0.0001589936,0.001688004,2.68382e-07,0.01683023,0,0.0000286432,0,,4.10194e-06,,,
6613,	08/09/2022 13:41:38.541,431294,388094,1,2,0.0001589942,0.001749039,2.78087e-07,0.01713759,0,0.00002916656,0,,-3.58909e-06,,0,0
6729,	08/09/2022 15:37:38.786,438254,395054,1,2,0.00015899,0.001724243,2.74137e-07,0.01744495,0,0.00002969003,0,,1.35788e-05,,,
6845,	08/09/2022 17:33:39.046,445215,402014,1,2,0.0001589933,0.001645088,2.61558e-07,0.0177523,0,0.00003021355,0,,3.63033e-06,,0,0
6961,	08/09/2022 19:29:39.298,452175,408975,1,2,0.0001589956,0.001689911,2.68688e-07,0.01805966,0,0.00003073659,0,,-8.75689e-06,,,
7077,	08/09/2022 21:25:39.528,459135,415935,1,2,0.0001589966,0.001747131,2.77788e-07,0.01836702,0,0.00003125909,0,,4.29754e-06,,0,0
7193,	08/09/2022 23:21:39.787,466095,422895,1,2,0.00015899,0.001750946,2.78383e-07,0.01867437,0,0.00003178199,0,,4.88823e-06,,0,0
7309,	08/10/2022 01:17:40.037,473055.545,429855,1,2,0.0001589952,0.001728058,2.74753e-07,0.01898173,0,0.00003230481,0,,4.11577e-06,,,
7425,	08/10/2022 03:13:40.276,480016,436816,1,2,0.0001589928,0.001741409,2.76871e-07,0.01928908,0,0.00003282745,0,,-1.69296e-06,,0,0
7541,	08/10/2022 05:09:40.544,486976,443776,1,2,0.0001589899,0.001749039,2.7808e-07,0.01959644,0,0.00003334997,0,,4.10822e-06,,,
7657,	08/10/2022 07:05:40.804,493936,450736.227,1,2,0.0001589902,0.001646996,2.61856e-07,0.01990379,0,0.0000338723,0,,-5.88828e-06,,0,0
7773,	08/10/2022 09:01:41.075,500897,457696,1,2,0.0001589872,0.001729965,2.75042e-07,0.02021114,0,0.00003439431,0,,7.71804e-06,,,
7889,	08/10/2022 10:57:41.332,507857,464657,1,2,0.0001589936,0.001702309,2.70656e-07,0.02051849,0,0.00003491694,0,,2.20599e-06,,0,0
8005,	08/10/2022 12:53:41.571,514817,471617,1,2,0.0001589911,0.001717567,2.73078e-07,0.02082585,0,0.00003543987,0,,-4.23108e-06,,,
8121,	08/10/2022 14:49:41.805,521777,478577,1,2,0.0001589943,0.001685143,2.67928e-07,0.02113321,0,0.00003596285,0,,-1.0888e-05,,0,0
8237,	08/10/2022 16:45:42.041,528738,485537,1,2,0.0001589918,0.001696587,2.69743e-07,0.02144056,0,0.00003648538,0,,2.4348e-06,,,
8353,	08/10/2022 18:41:42.284,535698,492498,1,2,0.0001589971,0.001717567,2.73088e-07,0.02174792,0,0.00003700866,0,,-2.24785e-06,,0,0
8469,	08/10/2022 20:37:42.528,542658.036,499458,1,2,0.0001589922,0.001764297,2.80509e-07,0.02205526,0,0.00003753125,0,,-3.6862e-06,,,
8585,	08/10/2022 22:33:42.788,549618,506418,1,2,0.000158992,0.001738548,2.76415e-07,0.02236262,0,0.00003805426,0,,6.86028e-06,,0,0
8701,	08/11/2022 00:29:43.059,556579,513378,1,2,0.0001589936,0.001693726,2.69292e-07,0.02266998,0,0.00003857703,0,,1.22968e-05,,,
8786,	08/30/2022 16:59:21.914,561600,518400,1,2,0.0001589964,0.001596451,2.5383e-07,0.02289201,0,0.00003900001,0,,0,0,0,0