Folder: ML-for-Si-Battery-Electrolyte/Cell-test-data/SiMP-LFP-SF1

Note: README.md
# ML-for-Si-Battery-Electrolyte

File: JB1_SiMP-LFP-SF1_Channel_71_StatisticByCycle.CSV
Date_Time                    ,Test Time (s),Step Time (s),Cycle Index,Step Index,Current (A),Voltage (V),Power (W),Charge Capacity (Ah),Discharge Capacity (Ah),Charge Energy (Wh),Discharge Energy (Wh),Charge Time (s),Discharge Time (s),V_Max_On_Cycle (V),Coulombic Efficiency (%),mAh/g
	08/06/2022 14:35:03.075,175275,60290.7,1,3,-0.0001589949,2.499987,-0.000397485,0.003169812,0.002662391,0.0105325,0.007892452,71773.61,60281.66,0,83.99207,,
	08/10/2022 10:48:06.473,507258,6432.35,10,6,-0.00106007,2.499987,-0.00265016,0.001936878,0.001893802,0.00632739,0.005495208,6578.58,6431.412,0,97.77604,,
	08/11/2022 16:58:02.004,615854,5623.64,19,6,-0.001059973,2.499998,-0.00264993,0.001688036,0.001655597,0.0055151,0.004812367,5733.237,5622.816,0,98.07824,,
	08/12/2022 19:24:40.320,711052,4991.27,28,6,-0.001060033,2.499998,-0.00265008,0.001495611,0.001469432,0.004890344,0.004273854,5079.726,4990.532,0,98.24968,,
	08/13/2022 19:02:05.900,796098,4468.33,37,6,-0.001060035,2.5,-0.00265009,0.001336749,0.001315541,0.004376107,0.0038242,4540.074,4467.681,0,98.41348,,
	08/14/2022 16:21:00.697,872833,4044.806,46,6,-0.001060068,2.499994,-0.00265016,0.001208999,0.001190884,0.003962212,0.003459478,4106.188,4044.169,0,98.50167,,
	08/15/2022 11:52:57.762,943150,3744.4,55,6,-0.00105995,2.499973,-0.00264985,0.001116764,0.001102318,0.003660892,0.003204737,3792.954,3743.842,0,98.70641,,
	08/16/2022 05:55:37.726,1.00811e+06,3480.38,64,6,-0.00105994,2.49999,-0.00264984,0.001038116,0.001024585,0.003403659,0.00297966,3525.833,3479.869,0,98.69654,,
	08/16/2022 22:37:13.398,1.06821e+06,3229.87,73,6,-0.001059893,2.499998,-0.00264973,0.0009613347,0.0009508272,0.003154609,0.00276324,3265.021,3229.385,0,98.90699,,
	08/17/2022 14:18:23.448,1.12468e+06,3021.05,82,6,-0.001059998,2.499989,-0.00264998,0.0009003215,0.0008893457,0.002955064,0.002583992,3057.924,3020.585,0,98.7809,,
	08/18/2022 04:48:15.588,1.17687e+06,2800.19,91,6,-0.00106007,2.499998,-0.00265017,0.0008332168,0.0008243825,0.002738692,0.00239096,2830.03,2799.756,0,98.93974,,
	08/18/2022 18:26:06.047,1.22594e+06,2645.625,100,6,-0.001060068,2.499987,-0.00265016,0.0007867739,0.0007789214,0.002587178,0.002257888,2672.202,2645.254,0,99.00193,,
	08/19/2022 07:20:30.245,1.2724e+06,2508.74,109,6,-0.001060185,2.499998,-0.00265046,0.0007459782,0.0007384922,0.002454082,0.00213976,2533.704,2508.349,0,98.99649,,
	08/19/2022 19:36:12.040,1.31654e+06,2387.34,118,6,-0.00106003,2.499998,-0.00265007,0.0007097358,0.0007028944,0.002335605,0.002035722,2410.606,2386.999,0,99.03606,,
	08/20/2022 07:17:47.210,1.35864e+06,2280.12,127,6,-0.001060151,2.5,-0.00265038,0.0006774781,0.0006713324,0.002230106,0.00194355,2301.036,2279.779,0,99.09286,,
	08/20/2022 18:28:31.594,1.39888e+06,2183.72,136,6,-0.001060135,2.499998,-0.00265034,0.0006487074,0.0006429553,0.002136046,0.001860541,2203.235,2183.393,0,99.11329,,
	08/21/2022 05:11:27.186,1437459.093,2094.93,145,6,-0.001060146,2.499977,-0.00265034,0.0006220585,0.0006167417,0.002048796,0.001783863,2112.852,2094.624,0,99.14529,,
	08/21/2022 15:29:13.915,1.47453e+06,2016.92,154,6,-0.001060123,2.499966,-0.00265027,0.0005987578,0.00059382,0.001972458,0.00171691,2033.745,2016.594,0,99.17532,,
	08/22/2022 01:24:38.844,1.51025e+06,1944.18,163,6,-0.00105989,2.499996,-0.00264972,0.0005769458,0.0005723284,0.001901049,0.001654036,1959.624,1943.89,0,99.19967,,
	08/22/2022 10:58:57.147,1544709.054,1877.08,172,6,-0.001060142,2.499977,-0.00265033,0.0005569621,0.0005526384,0.001835609,0.001596453,1891.778,1876.825,0,99.22371,,
	08/22/2022 20:13:56.049,1.57801e+06,1815.13,181,6,-0.001059848,2.49999,-0.00264961,0.0005386607,0.000534418,0.001775524,0.001543238,1829.51,1814.898,0,99.21237,,
	08/23/2022 05:11:14.903,1.61025e+06,1758.79,190,6,-0.001060141,2.499989,-0.00265034,0.0005218218,0.0005178346,0.001720333,0.001494743,1772.415,1758.516,0,99.23591,,
	08/23/2022 13:51:50.622,1.64148e+06,1706.061,199,6,-0.001060102,2.499998,-0.00265025,0.000506049,0.0005022878,0.001668559,0.001449355,1718.82,1705.781,0,99.25676,,
	08/23/2022 22:17:20.453,1.67181e+06,1657.2,208,6,-0.001059813,2.499987,-0.00264952,0.000491481,0.0004878545,0.001620713,0.001407093,1669.306,1656.975,0,99.26212,,
	08/24/2022 06:28:11.075,1701262.982,1609.84,217,6,-0.001059827,2.499966,-0.00264953,0.000477401,0.0004739045,0.001574528,0.00136632,1621.514,1609.633,0,99.26758,,
	08/24/2022 14:25:50.723,1.72992e+06,1568.39,226,6,-0.0010601,2.499968,-0.00265022,0.0004650458,0.0004617545,0.001533913,0.001330827,1579.372,1568.146,0,99.29226,,
	08/24/2022 22:11:09.878,1.75784e+06,1527.4,235,6,-0.00106008,2.49999,-0.00265019,0.0004527982,0.0004496488,0.001493651,0.001295439,1537.972,1527.187,0,99.30447,,
	08/25/2022 05:44:13.031,1.78502e+06,1487.68,244,6,-0.001059908,2.49999,-0.00264976,0.0004408791,0.000437953,0.001454517,0.001261235,1497.48,1487.44,0,99.3363,,
	08/25/2022 13:06:32.257,1.81156e+06,1456.01,253,6,-0.001060012,2.499992,-0.00265002,0.000432177,0.0004286639,0.001425802,0.001234274,1467.811,1455.795,0,99.1871,,
	08/25/2022 20:18:39.590,1.83749e+06,1419.45,262,6,-0.001060088,2.499998,-0.00265022,0.0004209439,0.0004179216,0.001388979,0.001202871,1429.655,1419.245,0,99.28201,,
	08/26/2022 03:20:28.899,1.8628e+06,1387.46,271,6,-0.001059864,2.499985,-0.00264964,0.0004110791,0.0004084324,0.001356504,0.00117508,1396.239,1387.296,0,99.35616,,
	08/26/2022 10:12:43.029,1887534.936,1355.51,280,6,-0.001060107,2.499987,-0.00265025,0.0004018421,0.0003991104,0.001326131,0.001147918,1364.858,1355.316,0,99.32022,,
	08/26/2022 16:56:13.270,1.91175e+06,1328.36,289,6,-0.001060019,2.5,-0.00265005,0.0003937048,0.0003910629,0.001299304,0.001124487,1337.177,1328.101,0,99.32896,,
	08/26/2022 23:30:56.919,1.93543e+06,1297.92,298,6,-0.001059821,2.499994,-0.00264955,0.000384563,0.0003820758,0.001269246,0.00109822,1306.207,1297.69,0,99.35324,,
	08/27/2022 05:56:52.618,1.95858e+06,1270.56,307,6,-0.001059839,2.499987,-0.00264958,0.0003764423,0.0003740264,0.001242522,0.00107472,1278.552,1270.337,0,99.35822,,
	08/27/2022 12:15:02.038,1.98127e+06,1245.79,316,6,-0.001060102,2.499994,-0.00265025,0.0003692379,0.0003667836,0.001218776,0.001053678,1254.101,1245.584,0,99.33528,,
	08/27/2022 18:26:12.842,2.00354e+06,1222.39,325,6,-0.001060093,2.499992,-0.00265022,0.0003623756,0.0003598934,0.001196164,0.001033658,1230.764,1222.188,0,99.31501,,
	08/28/2022 00:29:55.994,2.02537e+06,1197.532,334,6,-0.001060125,2.499968,-0.00265028,0.0003548192,0.0003526056,0.001171268,0.001012339,1205.149,1197.408,0,99.37613,,
	08/28/2022 06:26:32.265,2.04676e+06,1175.58,343,6,-0.001059931,2.499989,-0.00264982,0.0003482007,0.0003460366,0.001149464,0.0009932092,1182.646,1175.341,0,99.3785,,
	08/28/2022 12:16:33.567,2.06777e+06,1153.78,352,6,-0.001060046,2.499994,-0.00265011,0.0003417708,0.0003396989,0.001128257,0.0009747998,1160.792,1153.581,0,99.39378,,
	08/28/2022 18:00:41.345,2.08841e+06,1134.32,361,6,-0.001060068,2.499989,-0.00265016,0.0003361106,0.0003339513,0.001109572,0.0009580576,1141.559,1134.118,0,99.35755,,
	08/28/2022 23:38:24.600,2.10868e+06,1112.88,370,6,-0.001060149,2.499987,-0.00265036,0.0003296597,0.0003276494,0.00108832,0.0009397301,1119.651,1112.683,0,99.39016,,
	08/29/2022 05:09:58.050,2.12857e+06,1093.047,379,6,-0.001059867,2.5,-0.00264967,0.0003237535,0.0003217462,0.001068869,0.0009225605,1099.631,1092.841,0,99.38,,
	08/29/2022 10:35:55.064,2.14813e+06,1075.47,388,6,-0.001060137,2.499979,-0.00265032,0.000318483,0.0003166043,0.001051483,0.000907611,1081.767,1075.268,0,99.41012,,
	08/29/2022 15:56:37.365,2.16737e+06,1058.6,397,6,-0.001060013,2.499998,-0.00265003,0.0003133305,0.0003116627,0.001034445,0.0008932794,1064.191,1058.454,0,99.46774,,
	08/29/2022 21:12:11.238,2186303.145,1040.44,406,6,-0.001060031,2.499998,-0.00265008,0.0003081359,0.0003063162,0.00101731,0.0008777477,1046.561,1040.224,0,99.40945,,
	08/30/2022 02:22:20.145,2.20491e+06,1022.65,415,6,-0.001060116,2.499996,-0.00265029,0.0003029373,0.0003010952,0.001000167,0.0008625808,1028.894,1022.465,0,99.39193,,
	08/30/2022 20:11:37.350,2.2231e+06,994.8122,424,6,-0.001060113,2.5,-0.00265028,0.0002946049,0.0002929056,0.0009725451,0.0008385715,1000.586,994.6599,0,99.42321,,
	08/31/2022 01:08:39.138,2.24092e+06,980.6689,433,6,-0.001060176,2.499992,-0.00265043,0.0002904914,0.0002887288,0.0009589763,0.0008265853,986.6737,980.5273,0,99.39323,,
	08/31/2022 06:01:22.013,2.25849e+06,966.5463,442,6,-0.001059874,2.499935,-0.00264962,0.0002861189,0.0002845239,0.0009445205,0.0008143859,971.8163,966.4067,0,99.44254,,
	08/31/2022 10:49:46.110,2.27579e+06,952.1205,451,6,-0.001060135,2.499989,-0.00265033,0.0002820036,0.0002803393,0.0009309344,0.0008022852,957.824,951.9881,0,99.40984,,
	08/31/2022 15:34:14.288,2292859.192,939.6446,460,6,-0.001060065,2.499981,-0.00265014,0.0002782274,0.0002766354,0.0009184238,0.0007915659,944.9952,939.4939,0,99.42779,,
	08/31/2022 20:14:41.354,2309686.258,925.6778,469,6,-0.001060084,2.499989,-0.0026502,0.0002741379,0.0002725348,0.0009049455,0.0007796939,931.0871,925.5215,0,99.4152,,
	09/01/2022 00:51:01.516,2.32627e+06,912.5175,478,6,-0.001060068,2.499998,-0.00265017,0.0002702065,0.0002686541,0.0008919378,0.0007684411,917.6703,912.3779,0,99.42546,,
	09/01/2022 05:23:30.910,2.34262e+06,900.6079,487,6,-0.001060107,2.5,-0.00265027,0.0002666955,0.0002651513,0.0008803435,0.0007583225,905.7856,900.4507,0,99.42098,,
	09/01/2022 09:52:15.866,2.35874e+06,888.4648,496,6,-0.001060005,2.499989,-0.00265,0.0002629325,0.0002615633,0.0008679328,0.0007479173,892.9981,888.3214,0,99.47926,,
	09/01/2022 13:18:44.817,2.37113e+06,877.6894,503,6,-0.001060066,2.499989,-0.00265015,0.0002599121,0.0002584136,0.000857972,0.0007388045,882.7979,877.5472,0,99.42346,,

File: JB1_SiMP-LFP-SF1_Channel_71_StatisticByStep.CSV
Date_Time                    ,Test Time (s),Step Time (s),Cycle Index,Step Index,Current (A),Voltage (V),Power (W),Charge Capacity (Ah),Discharge Capacity (Ah),Charge Energy (Wh),Discharge Energy (Wh),Charge Time (s),Discharge Time (s),V_Max_On_Cycle (V),Coulombic Efficiency (%),mAh/g
	08/05/2022 01:53:48.095,43200,43200,1.00,1.00,0,0.223279,0,0,0,0,0,0,0,0,0,,
	08/10/2022 07:11:14.519,494246,6555.44,9.00,6.00,-0.001060091,2.5,-0.00265023,0.001976434,0.001930089,0.006454647,0.00560134,6712.898,6554.502,0,97.65511,,
	08/11/2022 13:48:44.221,604496,5688.56,18.00,6.00,-0.001059954,2.499992,-0.00264988,0.001704821,0.001674726,0.005572237,0.004865639,5790.302,5687.729,0,98.23476,,
	08/12/2022 16:36:48.492,700980,5048.88,27.00,6.00,-0.001059963,2.499992,-0.0026499,0.001511936,0.001486362,0.004944164,0.004322208,5135.125,5048.125,0,98.30849,,
	08/13/2022 16:31:56.773,787089,4528.53,36.00,6.00,-0.001060113,2.499983,-0.00265026,0.001355478,0.001333246,0.004436011,0.003876935,4603.697,4527.858,0,98.35981,,
	08/14/2022 14:05:09.008,864681,4103.07,45.00,6.00,-0.001060127,2.499985,-0.0026503,0.001227184,0.001208015,0.004020074,0.003511161,4168.036,4102.462,0,98.43803,,
	08/15/2022 09:47:19.777,935612,3771.68,54.00,6.00,-0.001059913,2.499996,-0.00264978,0.001125973,0.001110412,0.003690897,0.003227635,3824.226,3771.123,0,98.61798,,
	08/16/2022 03:58:50.952,1.0011e+06,3508.32,63.00,6.00,-0.001059979,2.5,-0.00264995,0.001046584,0.001032782,0.00343136,0.003003505,3554.573,3507.758,0,98.68118,,
	08/16/2022 20:48:57.935,1.06171e+06,3240.55,72.00,6.00,-0.001059971,2.499985,-0.00264991,0.0009646629,0.0009539893,0.003166215,0.00277152,3276.369,3240.068,0,98.89354,,
	08/17/2022 12:37:03.963,1.1186e+06,3045.76,81.00,6.00,-0.001059936,2.499987,-0.00264983,0.0009072059,0.0008966153,0.002977486,0.002605405,3081.261,3045.306,0,98.83261,,
	08/18/2022 03:14:24.921,1.17124e+06,2817.15,90.00,6.00,-0.001059982,2.499992,-0.00264995,0.0008383831,0.0008293698,0.002755617,0.002405435,2847.559,2816.678,0,98.92491,,
	08/18/2022 16:57:27.729,1.22062e+06,2660.86,99.00,6.00,-0.001059954,2.499981,-0.00264986,0.000791457,0.0007833933,0.002602496,0.002271064,2688.099,2660.473,0,98.98116,,
	08/19/2022 05:56:27.356,1.26736e+06,2523.59,108.00,6.00,-0.001059855,2.499969,-0.0026496,0.0007502302,0.0007428907,0.002467943,0.002152615,2548.023,2523.189,0,99.0217,,
	08/19/2022 18:16:13.663,1.31175e+06,2400.63,117.00,6.00,-0.001060065,2.499975,-0.00265014,0.000713585,0.0007067989,0.002348199,0.002047168,2423.696,2400.29,0,99.04901,,
	08/20/2022 06:01:25.630,1.35406e+06,2291.74,126.00,6.00,-0.001060121,2.49999,-0.00265029,0.000681431,0.0006747764,0.002243072,0.001953651,2314.423,2291.416,0,99.02344,,
	08/20/2022 17:15:24.232,1.3945e+06,2192.54,135.00,6.00,-0.001060165,2.499996,-0.00265041,0.0006512754,0.0006455657,0.002144461,0.001868158,2211.972,2192.24,0,99.1233,,
	08/21/2022 04:01:19.044,1.43325e+06,2104.44,144.00,6.00,-0.001059841,2.499973,-0.00264957,0.0006249868,0.0006195669,0.002058372,0.001792134,2122.771,2104.109,0,99.1328,,
	08/21/2022 14:21:42.870,1.47047e+06,2025.92,153.00,6.00,-0.001060118,2.49999,-0.00265028,0.0006015131,0.0005964935,0.001981532,0.00172472,2043.061,2025.61,0,99.1655,,
	08/22/2022 00:19:34.655,1.50635e+06,1952.02,162.00,6.00,-0.001059882,2.5,-0.002649705,0.0005792984,0.0005746671,0.001908793,0.001660889,1967.618,1951.732,0,99.20052,,
	08/22/2022 09:56:07.948,1.54094e+06,1883.87,171.00,6.00,-0.001060165,2.499968,-0.00265038,0.0005590499,0.0005546028,0.00184244,0.001602209,1898.686,1883.596,0,99.20451,,
	08/22/2022 19:13:11.047,1.57436e+06,1821.77,180.00,6.00,-0.001060042,2.499987,-0.00265009,0.0005405829,0.0005363767,0.001781857,0.001549022,1836.114,1821.494,0,99.22192,,
	08/23/2022 04:12:23.369,1.60672e+06,1764.4,189.00,6.00,-0.00106006,2.499987,-0.00265014,0.0005234787,0.0005194868,0.001725759,0.001499589,1777.945,1764.13,0,99.23742,,
	08/23/2022 12:54:45.435,1.63806e+06,1711.36,198.00,6.00,-0.001060075,2.49999,-0.00265018,0.0005077053,0.000503876,0.001673944,0.001453972,1724.474,1711.096,0,99.24577,,
	08/23/2022 21:21:53.608,1.66849e+06,1662.82,207.00,6.00,-0.001060125,2.499949,-0.00265026,0.0004931918,0.0004895557,0.001626337,0.001412083,1675.019,1662.538,0,99.26274,,
	08/24/2022 05:34:19.388,1.69803e+06,1615.38,216.00,6.00,-0.001059878,2.49999,-0.00264968,0.0004787924,0.0004755511,0.001579115,0.001371085,1626.272,1615.162,0,99.32302,,
	08/24/2022 13:33:22.693,1.72677e+06,1573.2,225.00,6.00,-0.001060118,2.499998,-0.00265029,0.0004663361,0.000463179,0.001538166,0.001335008,1583.898,1572.95,0,99.32298,,
	08/24/2022 21:20:04.241,1.75478e+06,1531.77,234.00,6.00,-0.001059849,2.499992,-0.00264961,0.0004541842,0.0004509775,0.001498205,0.001299343,1542.591,1531.526,0,99.29397,,
	08/25/2022 04:54:27.564,1.78204e+06,1492.2,243.00,6.00,-0.001059896,2.499992,-0.00264973,0.0004423434,0.0004392769,0.001459348,0.00126514,1502.431,1492.016,0,99.30678,,
	08/25/2022 12:17:48.145,1.80864e+06,1459.46,252.00,6.00,-0.001060058,2.499996,-0.00265014,0.0004320335,0.0004296876,0.001425387,0.001237258,1467.361,1459.251,0,99.45701,,
	08/25/2022 19:31:10.200,1.83464e+06,1422.98,261.00,6.00,-0.00106007,2.499998,-0.00265017,0.0004219022,0.0004189493,0.001392092,0.001205796,1432.926,1422.743,0,99.30009,,
	08/26/2022 02:34:04.950,1.86002e+06,1390.8,270.00,6.00,-0.00105988,2.5,-0.0026497,0.0004123212,0.0004094132,0.001360621,0.001177956,1400.472,1390.62,0,99.29472,,
	08/26/2022 09:27:22.408,1.88481e+06,1359.34,279.00,6.00,-0.001060102,2.499975,-0.00265023,0.0004028837,0.0004002289,0.001329576,0.00115115,1368.419,1359.163,0,99.34105,,
	08/26/2022 16:11:47.472,1.90908e+06,1331.49,288.00,6.00,-0.001060063,2.499998,-0.00265016,0.0003945723,0.0003920132,0.001302143,0.001127268,1340.167,1331.318,0,99.35142,,
	08/26/2022 22:47:32.521,1.93282e+06,1301.17,297.00,6.00,-0.001059825,2.5,-0.00264956,0.0003855995,0.0003830225,0.001272644,0.001101007,1309.748,1300.957,0,99.33169,,
	08/27/2022 05:14:23.201,1.95604e+06,1272.85,306.00,6.00,-0.001060162,2.499989,-0.00265039,0.000377194,0.0003747531,0.001244981,0.001076844,1281.124,1272.608,0,99.35287,,
	08/27/2022 11:33:21.852,1.97877e+06,1248.96,315.00,6.00,-0.001060127,2.499998,-0.00265032,0.0003701086,0.0003677241,0.001221647,0.001056382,1257.058,1248.724,0,99.35573,,
	08/27/2022 17:45:19.427,2.00109e+06,1225.09,324.00,6.00,-0.001059991,2.499985,-0.00264996,0.0003629604,0.0003606634,0.001198067,0.001035876,1232.694,1224.863,0,99.36716,,
	08/27/2022 23:49:53.092,2.02296e+06,1200.47,333.00,6.00,-0.001059867,2.499998,-0.00264967,0.0003556173,0.0003533662,0.001173904,0.001014554,1207.869,1200.251,0,99.36699,,
	08/28/2022 05:47:13.770,2.04441e+06,1177.44,342.00,6.00,-0.001060137,2.499989,-0.00265033,0.0003487752,0.0003466687,0.001151362,0.0009950512,1184.625,1177.242,0,99.39603,,
	08/28/2022 11:37:58.732,2.06545e+06,1155.62,351.00,6.00,-0.001060093,2.5,-0.00265023,0.000342441,0.0003402433,0.001130461,0.0009763854,1163.041,1155.421,0,99.35825,,
	08/28/2022 17:22:45.235,2.08614e+06,1137.27,360.00,6.00,-0.001060118,2.499969,-0.00265026,0.0003368023,0.0003348388,0.001111863,0.0009606266,1143.925,1137.068,0,99.41702,,
	08/28/2022 23:01:11.811,2.10644e+06,1114.66,369.00,6.00,-0.001060109,2.499996,-0.00265027,0.0003303165,0.0003281815,0.001090479,0.0009412956,1121.928,1114.47,0,99.35365,,
	08/29/2022 04:33:25.125,2.12638e+06,1094.96,378.00,6.00,-0.001060104,2.499975,-0.00265023,0.0003243989,0.0003223924,0.001070983,0.0009244353,1101.745,1094.791,0,99.38147,,
	08/29/2022 09:59:57.550,2.14597e+06,1076.65,387.00,6.00,-0.001059841,2.499987,-0.00264959,0.0003189775,0.0003169754,0.001053092,0.0009087354,1083.399,1076.455,0,99.37236,,
	08/29/2022 15:21:14.336,2.16525e+06,1060.16,396.00,6.00,-0.001060068,2.499992,-0.00265016,0.0003140048,0.000312115,0.001036674,0.0008946282,1066.468,1059.961,0,99.39816,,
	08/29/2022 20:37:23.994,2.18422e+06,1042.34,405.00,6.00,-0.00106007,2.499971,-0.00265014,0.0003088345,0.0003068878,0.001019609,0.0008794164,1048.926,1042.157,0,99.36968,,
	08/30/2022 01:48:08.371,2.20286e+06,1024.88,414.00,6.00,-0.001060128,2.499977,-0.0026503,0.0003036181,0.0003017525,0.001002427,0.0008644808,1031.207,1024.738,0,99.38556,,
	08/30/2022 19:38:21.742,2.22111e+06,995.8963,423.00,6.00,-0.001060066,2.499985,-0.00265015,0.000294964,0.0002932254,0.0009737668,0.0008394464,1001.863,995.7597,0,99.41058,,
	08/31/2022 00:35:51.569,2.23896e+06,982.3234,432.00,6.00,-0.001059837,2.5,-0.00264959,0.0002909454,0.0002891653,0.0009604608,0.0008278227,988.2074,982.1754,0,99.38816,,
	08/31/2022 05:29:03.440,2.25655e+06,967.9960,441.00,6.00,-0.001059902,2.499996,-0.00264975,0.0002866158,0.000284954,0.0009461627,0.0008156579,973.5221,967.869,0,99.4202,,
	08/31/2022 10:17:55.974,2.27388e+06,953.6052,450.00,6.00,-0.001060127,2.499977,-0.00265029,0.0002823537,0.0002807615,0.0009320731,0.0008034981,959.0148,953.4605,0,99.4361,,
	08/31/2022 15:02:49.452,2.29097e+06,940.9500,459.00,6.00,-0.001060074,2.499977,-0.00265016,0.0002786926,0.0002770282,0.00091997,0.000792705,946.5731,940.782,0,99.40279,,
	08/31/2022 19:43:44.379,2.30783e+06,927.1842,468.00,6.00,-0.001060001,2.499994,-0.00265,0.0002745684,0.0002729657,0.0009063396,0.0007809196,932.5177,927.0374,0,99.4163,,
	09/01/2022 00:20:31.119,2.32444e+06,914.1355,477.00,6.00,-0.001059994,2.499992,-0.00264998,0.0002706825,0.0002691296,0.0008935143,0.0007698099,919.3625,913.9802,0,99.42632,,
	09/01/2022 04:53:24.321,2.34081e+06,901.4255,486.00,6.00,-0.001060012,2.5,-0.00265003,0.0002669769,0.0002653885,0.0008812749,0.0007589716,906.7204,901.3071,0,99.40502,,
	09/01/2022 09:22:34.191,2.35696e+06,889.0293,495.00,6.00,-0.001060066,2.499983,-0.00265015,0.0002632909,0.0002617394,0.0008691136,0.0007484246,894.2258,888.8833,0,99.4107,,
	09/01/2022 13:18:44.817,2.37113e+06,877.6894,503.00,6.00,-0.001060066,2.499989,-0.00265015,0.0002599121,0.0002584136,0.000857972,0.0007388045,882.7979,877.5472,0,99.42346,,