Folder: ML-for-Si-Battery-Electrolyte/Cell-test-data/SiMP-LFP-PFP1

Note: README.md
# ML-for-Si-Battery-Electrolyte

File: JB5_SiMP-LFP-PFP1_Channel_78_StatisticByCycle.CSV
Date_Time                    ,Test Time (s),Step Time (s),Cycle Index,Step Index,Current (A),Voltage (V),Power (W),Charge Capacity (Ah),Discharge Capacity (Ah),Charge Energy (Wh),Discharge Energy (Wh),Charge Time (s),Discharge Time (s),V_Max_On_Cycle (V),Coulombic Efficiency (%),mAh/g
	08/06/2022 15:09:27.244,177382,61787.4,1,3,-0.0001589868,2.499993,-0.000397466,0.003196866,0.002728391,0.01062296,0.008092475,72384.87,61779.13,0,85.34582,,
	08/10/2022 16:14:23.638,526879,7203.64,10,6,-0.001060045,2.499991,-0.0026501,0.002158581,0.002120904,0.007026407,0.006140517,7330.42,7202.733,0,98.25454,,
	08/12/2022 02:06:44.045,648819,6322.24,19,6,-0.001060019,2.499991,-0.00265004,0.001899262,0.001861445,0.006189391,0.005394182,6450.172,6321.441,0,98.00886,,
	08/13/2022 07:58:28.217,756323,5603.235,28,6,-0.001060108,2.499999,-0.00265027,0.001680668,0.001649774,0.005485416,0.004786045,5707.33,5602.556,0,98.16183,,
	08/14/2022 10:36:36.903,852212,5033.83,37,6,-0.001060012,2.499999,-0.00265003,0.001503941,0.001482013,0.004915211,0.00430265,5107.199,5033.192,0,98.54197,,
	08/15/2022 10:43:22.962,939018,4598.21,46,6,-0.001059985,2.499997,-0.00264996,0.001373192,0.001353751,0.004489659,0.003934918,4663.22,4597.636,0,98.58423,,
	08/16/2022 08:51:18.651,1.01869e+06,4245.09,55,6,-0.001060027,2.499991,-0.00265006,0.001268797,0.001249846,0.004148183,0.003636826,4308.732,4244.563,0,98.50641,,
	08/17/2022 05:10:29.026,1.09184e+06,3928.47,64,6,-0.001059935,2.499995,-0.00264983,0.001171816,0.001156535,0.003833224,0.003366591,3979.763,3927.99,0,98.69601,,
	08/17/2022 23:59:55.282,1.15961e+06,3585.57,73,6,-0.001060033,2.49999,-0.00265007,0.001068148,0.001055664,0.003499605,0.00306691,3627.238,3585.114,0,98.83122,,
	08/18/2022 17:24:00.201,1222255.143,3361.68,82,6,-0.001060041,2.499995,-0.0026501,0.001000641,0.0009897114,0.003279546,0.002875616,3397.97,3361.243,0,98.90775,,
	08/19/2022 09:41:50.775,1.28093e+06,3150.62,91,6,-0.001060131,2.499999,-0.00265033,0.0009377363,0.0009276517,0.003075036,0.002694004,3184.413,3150.219,0,98.92458,,
	08/20/2022 01:05:44.099,1336359.041,2985.73,100,6,-0.001060041,2.499991,-0.00265009,0.00088842,0.0008790681,0.002913815,0.002552981,3016.935,2985.362,0,98.94736,,
	08/20/2022 15:40:12.465,1388827.407,2831.21,109,6,-0.001060096,2.499993,-0.00265023,0.0008419607,0.0008335855,0.002762342,0.002420376,2859.171,2830.865,0,99.00527,,
	08/21/2022 05:31:09.845,1.43868e+06,2693.22,118,6,-0.001060184,2.499999,-0.00265046,0.0008008373,0.0007929893,0.002628142,0.00230171,2719.621,2692.869,0,99.02003,,
	08/21/2022 18:43:18.684,1.48621e+06,2576.69,127,6,-0.001060036,2.49999,-0.00265008,0.0007656388,0.0007586326,0.002513103,0.002201784,2599.98,2576.354,0,99.08492,,
	08/22/2022 07:19:46.943,1.5316e+06,2458.62,136,6,-0.00106015,2.49998,-0.00265035,0.0007300967,0.0007238603,0.002397367,0.002099643,2479.324,2458.307,0,99.14581,,
	08/22/2022 19:27:19.139,1.57525e+06,2372.94,145,6,-0.00106007,2.499999,-0.00265017,0.0007047594,0.0006986437,0.002314183,0.002026809,2393.234,2372.629,0,99.13223,,
	08/23/2022 07:06:43.392,1.61722e+06,2278,154,6,-0.001060058,2.49998,-0.00265012,0.0006765323,0.0006707131,0.002222038,0.001944951,2297.389,2277.7,0,99.13985,,
	08/23/2022 18:20:36.099,1.65765e+06,2198.58,163,6,-0.001060068,2.499997,-0.00265017,0.00065276,0.0006473137,0.002144194,0.001876832,2216.677,2198.292,0,99.16565,,
	08/24/2022 05:08:47.490,1.69654e+06,2114.8,172,6,-0.001060154,2.499988,-0.00265037,0.0006275632,0.0006226802,0.002062056,0.001804188,2131.148,2114.514,0,99.22191,,
	08/24/2022 15:35:17.099,1.73413e+06,2059.6,181,6,-0.001060061,2.499993,-0.00265015,0.0006112147,0.0006063749,0.002008179,0.001757468,2075.586,2059.35,0,99.20818,,
	08/25/2022 01:42:34.579,1.77057e+06,1982.12,190,6,-0.001060142,2.499997,-0.00265035,0.0005882107,0.0005836062,0.001933214,0.001690158,1997.517,1981.877,0,99.21721,,
	08/25/2022 11:29:27.945,1.80578e+06,1926.72,199,6,-0.001060035,2.499993,-0.00265008,0.0005710978,0.0005672818,0.001877125,0.001642696,1939.344,1926.476,0,99.33181,,
	08/25/2022 21:02:17.973,1.84015e+06,1872.63,208,6,-0.001060096,2.499993,-0.00265023,0.0005555872,0.0005513589,0.001826202,0.001596233,1886.685,1872.376,0,99.23895,,
	08/26/2022 06:16:12.022,1873386.964,1814.71,217,6,-0.001060138,2.499995,-0.00265034,0.000537955,0.0005343257,0.001768733,0.001546069,1826.798,1814.488,0,99.32536,,
	08/26/2022 15:15:54.080,1.90577e+06,1778.22,226,6,-0.001060012,2.499999,-0.00265003,0.0005273381,0.0005235439,0.001733602,0.001515226,1790.864,1777.997,0,99.28049,,
	08/27/2022 00:02:15.720,1.93735e+06,1722.28,235,6,-0.001060124,2.499988,-0.0026503,0.0005106677,0.0005071066,0.001679193,0.00146664,1734.146,1722.058,0,99.30265,,
	08/27/2022 08:32:55.078,1967990.02,1675.36,244,6,-0.001060129,2.499997,-0.00265032,0.0004967294,0.0004932868,0.001633657,0.001426134,1686.85,1675.14,0,99.30695,,
	08/27/2022 16:51:53.294,1.99793e+06,1641.37,253,6,-0.001060044,2.499974,-0.00265008,0.0004867152,0.0004832673,0.001600679,0.001397137,1652.789,1641.171,0,99.29159,,
	08/28/2022 00:59:11.159,2.02717e+06,1598.87,262,6,-0.001059898,2.49999,-0.00264973,0.0004743054,0.0004707026,0.001560064,0.001360218,1610.69,1598.66,0,99.24041,,
	08/28/2022 08:53:22.264,2.05562e+06,1559.78,271,6,-0.001060138,2.499997,-0.00265034,0.0004622843,0.0004592549,0.001520705,0.00132672,1569.894,1559.58,0,99.34468,,
	08/28/2022 16:38:05.946,2.0835e+06,1530.14,280,6,-0.001060098,2.49999,-0.00265023,0.0004535928,0.0004505184,0.001492078,0.001301421,1540.329,1529.953,0,99.32223,,
	08/29/2022 00:12:55.045,2.11079e+06,1495.7,289,6,-0.00105984,2.499995,-0.00264959,0.0004433094,0.0004403985,0.001458359,0.001271765,1505.439,1495.503,0,99.34338,,
	08/29/2022 07:36:44.471,2.13742e+06,1459.59,298,6,-0.001059824,2.499993,-0.00264955,0.0004325638,0.0004297237,0.001423215,0.00124042,1468.949,1459.38,0,99.34342,,
	08/29/2022 14:52:26.350,2.16356e+06,1439.63,307,6,-0.001060083,2.499986,-0.00265019,0.0004266741,0.0004238656,0.001403694,0.00122373,1448.918,1439.456,0,99.34175,,
	08/29/2022 22:00:18.154,2.18923e+06,1405.71,316,6,-0.00106015,2.499991,-0.00265037,0.0004165874,0.0004138973,0.001370635,0.00119443,1414.668,1405.51,0,99.35424,,
	08/30/2022 17:45:33.888,2.21432e+06,1434.73,325,6,-0.001060061,2.499988,-0.00265014,0.0003938423,0.0004224183,0.001311227,0.001221158,1337.402,1434.527,0,107.2557,,
	08/31/2022 00:34:36.217,2.23886e+06,1339.34,334,6,-0.001060142,2.499986,-0.00265034,0.0003971163,0.0003943345,0.001306592,0.001137401,1348.563,1339.148,0,99.2995,,
	08/31/2022 07:12:42.913,2.26275e+06,1309.73,343,6,-0.001060147,2.499988,-0.00265035,0.0003880895,0.0003855829,0.00127689,0.001111743,1317.935,1309.548,0,99.3541,,
	08/31/2022 13:43:52.294,2.28622e+06,1295.39,352,6,-0.001060101,2.499995,-0.00265025,0.0003837826,0.0003813927,0.001262461,0.001099828,1303.433,1295.217,0,99.37726,,
	08/31/2022 20:10:07.419,2.30939e+06,1271.9,361,6,-0.001060103,2.49999,-0.00265025,0.0003769064,0.0003744792,0.001239867,0.001079684,1279.95,1271.724,0,99.35603,,
	09/01/2022 02:28:58.831,2.33212e+06,1248.18,370,6,-0.001060047,2.499984,-0.0026501,0.0003698438,0.0003674827,0.001216667,0.001059228,1256.163,1247.989,0,99.3616,,
	09/01/2022 08:40:23.965,2.35441e+06,1222.78,379,6,-0.001060063,2.499993,-0.00265015,0.0003621037,0.000360008,0.001191286,0.001037309,1229.655,1222.612,0,99.42123,,
	09/01/2022 14:45:14.886,2.3763e+06,1199.75,388,6,-0.001060106,2.499976,-0.00265024,0.0003554173,0.0003532362,0.00116934,0.001017544,1206.932,1199.579,0,99.38631,,
	09/01/2022 20:42:09.082,2.39771e+06,1176.2,397,6,-0.001060117,2.499995,-0.00265029,0.0003483709,0.0003463068,0.001146241,0.0009972728,1183.042,1176.033,0,99.4075,,
	09/02/2022 02:33:49.106,2.41881e+06,1160.21,406,6,-0.00106011,2.499999,-0.00265027,0.0003438699,0.0003416048,0.001131363,0.0009836657,1167.719,1160.052,0,99.34127,,
	09/02/2022 08:18:38.243,2.4395e+06,1136.82,415,6,-0.001060092,2.499982,-0.00265021,0.0003366842,0.0003347156,0.001107835,0.0009634601,1143.336,1136.657,0,99.41531,,
	09/02/2022 13:58:18.275,2.45988e+06,1125.22,424,6,-0.001060072,2.499988,-0.00265017,0.0003332833,0.0003312831,0.001096547,0.0009536729,1131.77,1125.058,0,99.39983,,
	09/02/2022 19:33:56.792,2.48002e+06,1105.2,433,6,-0.001060075,2.499999,-0.00265019,0.0003273587,0.0003253974,0.001077109,0.0009364683,1111.65,1105.047,0,99.40087,,
	09/03/2022 01:03:47.339,2.49981e+06,1087.95,442,6,-0.001060078,2.499991,-0.00265019,0.0003224252,0.0003203142,0.001060899,0.0009217021,1094.891,1087.788,0,99.34526,,
	09/03/2022 06:28:09.568,2.51927e+06,1070.43,451,6,-0.001060057,2.499999,-0.00265014,0.0003170701,0.0003151535,0.001043293,0.0009066601,1076.888,1070.274,0,99.39554,,
	09/03/2022 11:47:44.925,2.53845e+06,1054.76,460,6,-0.001060115,2.499986,-0.00265027,0.0003125016,0.0003105436,0.00102827,0.0008932675,1061.198,1054.615,0,99.37343,,
	09/03/2022 17:01:43.443,2.55729e+06,1034.707,469,6,-0.001060106,2.49999,-0.00265025,0.0003065475,0.0003046503,0.00100876,0.0008760297,1040.984,1034.55,0,99.38111,,
	09/03/2022 22:10:18.782,2.5758e+06,1019.01,478,6,-0.001060075,2.49999,-0.00265018,0.0003017641,0.0003000255,0.0009930484,0.0008625891,1024.736,1018.867,0,99.42388,,
	09/04/2022 03:15:22.343,2.59411e+06,1010.27,487,6,-0.001060055,2.49999,-0.00265013,0.0002991586,0.000297452,0.0009844087,0.0008552574,1015.883,1010.133,0,99.42953,,
	09/04/2022 08:17:24.637,2.61223e+06,996.3675,496,6,-0.001060073,2.499991,-0.00265017,0.000295224,0.0002933285,0.0009714395,0.0008432647,1002.59,996.174,0,99.35794,,
	09/04/2022 12:08:14.227,2.62608e+06,980.4637,503,6,-0.001060075,2.499999,-0.00265019,0.000290368,0.0002886621,0.0009555406,0.0008295905,986.0562,980.2799,0,99.41251,,

File: JB5_SiMP-LFP-PFP1_Channel_78_StatisticByStep.CSV
Date_Time                    ,Test Time (s),Step Time (s),Cycle Index,Step Index,Current (A),Voltage (V),Power (W),Charge Capacity (Ah),Discharge Capacity (Ah),Charge Energy (Wh),Discharge Energy (Wh),Charge Time (s),Discharge Time (s),V_Max_On_Cycle (V),Coulombic Efficiency (%),mAh/g
	08/05/2022 01:53:05.059,43200,43200,1.00,1.00,0,0.2124748,0,0,0,0,0,0,0,0,0,,
	08/10/2022 12:12:08.551,512343,7264.19,9.00,6.00,-0.001060026,2.499991,-0.00265006,0.002173738,0.002138737,0.007079645,0.006187292,7381.716,7263.252,0,98.38983,,
	08/11/2022 22:33:50.768,636046,6436.65,18.00,6.00,-0.001060078,2.499999,-0.00265019,0.00193225,0.001895075,0.006294901,0.005493877,6561.707,6435.799,0,98.07608,,
	08/13/2022 04:49:56.878,745012,5691.72,27.00,6.00,-0.001060082,2.499988,-0.00265019,0.001706328,0.001675753,0.005567726,0.00486256,5794.712,5691.003,0,98.20815,,
	08/14/2022 07:47:35.172,842070,5086.88,36.00,6.00,-0.001060066,2.499995,-0.00265016,0.001522179,0.001497687,0.0049739,0.004347431,5169.26,5086.257,0,98.39101,,
	08/15/2022 08:09:00.881,929756,4646.11,45.00,6.00,-0.001060017,2.499976,-0.00265002,0.001388803,0.001367867,0.004539913,0.003975706,4716.314,4645.533,0,98.49249,,
	08/16/2022 06:28:44.224,1.01014e+06,4289.68,54.00,6.00,-0.001060015,2.499993,-0.00265003,0.001281397,0.001262927,0.004189286,0.003675423,4351.383,4289.137,0,98.55862,,
	08/17/2022 02:58:40.241,1.08394e+06,3959.26,63.00,6.00,-0.001059973,2.499988,-0.00264992,0.001181171,0.001165575,0.003863851,0.003392593,4011.448,3958.725,0,98.67957,,
	08/17/2022 21:59:41.957,1.1524e+06,3612.98,72.00,6.00,-0.001060052,2.499991,-0.00265012,0.001076519,0.001063751,0.003526901,0.003090319,3655.703,3612.506,0,98.814,,
	08/18/2022 15:31:20.054,1.21549e+06,3382.43,81.00,6.00,-0.001060041,2.499995,-0.0026501,0.001007358,0.0009958579,0.003301436,0.002893225,3420.926,3382.001,0,98.85837,,
	08/19/2022 07:56:15.260,1.27459e+06,3170.81,90.00,6.00,-0.001060106,2.499999,-0.00265026,0.0009436302,0.0009335831,0.003094231,0.00271116,3204.423,3170.403,0,98.93527,,
	08/19/2022 23:25:41.000,1.33036e+06,3004.97,99.00,6.00,-0.001060083,2.49998,-0.00265019,0.0008935069,0.0008847203,0.002930373,0.002569508,3034.198,3004.581,0,99.01662,,
	08/20/2022 14:05:21.631,1.38314e+06,2848.69,108.00,6.00,-0.001060112,2.499967,-0.00265025,0.0008476932,0.000838745,0.002780965,0.00243543,2878.599,2848.338,0,98.9444,,
	08/21/2022 04:00:56.597,1.43327e+06,2708.92,117.00,6.00,-0.001060108,2.499995,-0.00265026,0.0008051926,0.000797584,0.002642286,0.002315184,2734.326,2708.555,0,99.05505,,
	08/21/2022 17:17:01.589,1.48104e+06,2589.87,126.00,6.00,-0.0010601,2.499999,-0.00265025,0.0007696257,0.0007625055,0.002526099,0.002213125,2613.57,2589.516,0,99.07486,,
	08/22/2022 05:57:28.626,1.52666e+06,2469.69,135.00,6.00,-0.001060124,2.499991,-0.0026503,0.0007338646,0.0007271646,0.002409651,0.002109217,2492.149,2469.357,0,99.08702,,
	08/22/2022 18:07:52.598,1.57049e+06,2383.54,144.00,6.00,-0.001060043,2.499988,-0.00265009,0.0007078871,0.000701765,0.002324356,0.002035868,2404.276,2383.214,0,99.13516,,
	08/23/2022 05:50:27.642,1.61264e+06,2288.86,153.00,6.00,-0.001060064,2.499986,-0.00265015,0.00068003,0.0006739212,0.002233424,0.001954359,2309.3,2288.588,0,99.10168,,
	08/23/2022 17:07:00.504,1.65324e+06,2207.48,162.00,6.00,-0.001060045,2.499997,-0.00265011,0.0006556904,0.0006499312,0.002153773,0.001884456,2226.662,2207.204,0,99.12167,,
	08/24/2022 03:58:01.187,1.6923e+06,2122.88,171.00,6.00,-0.001060136,2.499982,-0.00265032,0.0006300361,0.0006250564,0.002070124,0.001811168,2139.512,2122.588,0,99.20962,,
	08/24/2022 14:26:21.582,1.73e+06,2065.06,180.00,6.00,-0.001060044,2.499997,-0.00265011,0.0006126819,0.0006079989,0.002013062,0.001762058,2080.679,2064.797,0,99.23566,,
	08/25/2022 00:36:14.616,1.76659e+06,1990.04,189.00,6.00,-0.001060148,2.499995,-0.00265036,0.0005904783,0.0005859438,0.001940613,0.001697038,2005.16,1989.791,0,99.23206,,
	08/25/2022 10:25:01.554,1.80192e+06,1930.45,198.00,6.00,-0.001060069,2.499997,-0.00265017,0.0005725667,0.0005683766,0.001881972,0.00164574,1944.363,1930.182,0,99.26818,,
	08/25/2022 19:59:38.356,1.83639e+06,1880.72,207.00,6.00,-0.001060119,2.499997,-0.00265029,0.0005580782,0.0005537385,0.001834338,0.001603277,1895.137,1880.482,0,99.22239,,
	08/26/2022 05:15:30.206,1.86975e+06,1819.11,216.00,6.00,-0.001060128,2.499988,-0.00265031,0.0005395694,0.0005356197,0.001773986,0.001549833,1832.318,1818.865,0,99.268,,
	08/26/2022 14:16:24.696,1.9022e+06,1781.55,225.00,6.00,-0.001060061,2.499999,-0.00265015,0.0005281304,0.0005245345,0.001736264,0.001517998,1793.593,1781.339,0,99.31912,,
	08/26/2022 23:04:39.039,1.93389e+06,1728.1,234.00,6.00,-0.001060101,2.49998,-0.00265023,0.0005126682,0.0005088304,0.001685722,0.001471756,1740.966,1727.894,0,99.2514,,
	08/27/2022 07:36:52.592,1.96463e+06,1679.65,243.00,6.00,-0.00106015,2.499993,-0.00265037,0.0004978611,0.0004945341,0.001637358,0.001429685,1690.672,1679.44,0,99.33175,,
	08/27/2022 15:56:58.853,1.99463e+06,1646.12,252.00,6.00,-0.001060091,2.499999,-0.00265023,0.0004881293,0.0004846658,0.001605318,0.001401233,1657.619,1645.895,0,99.29046,,
	08/28/2022 00:05:41.317,2.02396e+06,1604.63,261.00,6.00,-0.001060111,2.499986,-0.00265026,0.0004756317,0.000472462,0.001564394,0.001365387,1615.215,1604.422,0,99.33358,,
	08/28/2022 08:01:12.327,2.05249e+06,1562.45,270.00,6.00,-0.00106017,2.499988,-0.00265041,0.0004631488,0.0004600442,0.00152358,0.001328967,1572.787,1562.241,0,99.32966,,
	08/28/2022 15:46:55.210,2.08043e+06,1534.5,279.00,6.00,-0.001060082,2.499988,-0.00265019,0.000454983,0.0004518113,0.001496627,0.001305222,1545.036,1534.302,0,99.30289,,
	08/28/2022 23:22:53.642,2.10779e+06,1499.46,288.00,6.00,-0.001059859,2.499995,-0.00264964,0.0004443976,0.0004414745,0.001461926,0.001274906,1509.117,1499.259,0,99.34224,,
	08/29/2022 06:47:55.667,2.13449e+06,1462.89,297.00,6.00,-0.001060114,2.499997,-0.00265028,0.0004334506,0.0004306882,0.001426126,0.001243234,1471.966,1462.703,0,99.36269,,
	08/29/2022 14:04:17.557,2.16067e+06,1442.01,306.00,6.00,-0.001060084,2.499976,-0.00265018,0.0004270685,0.0004245645,0.001405014,0.001225733,1450.26,1441.828,0,99.41369,,
	08/29/2022 21:13:17.530,2.18641e+06,1409.54,315.00,6.00,-0.001060094,2.49997,-0.0026502,0.0004178246,0.0004150265,0.00137469,0.00119776,1418.877,1409.36,0,99.33033,,
	08/30/2022 04:12:11.184,2.21155e+06,1377.75,324.00,6.00,-0.001059836,2.499991,-0.00264958,0.0004083157,0.0004055691,0.001343559,0.001169989,1386.62,1377.573,0,99.32732,,
	08/30/2022 23:49:48.070,2.23617e+06,1343.41,333.00,6.00,-0.00106014,2.499995,-0.00265034,0.0003983242,0.0003955516,0.001310589,0.001140997,1352.678,1343.224,0,99.30392,,
	08/31/2022 06:28:55.005,2.26012e+06,1312.84,342.00,6.00,-0.001059816,2.499997,-0.00264954,0.0003890094,0.0003864623,0.00127992,0.001114304,1321.066,1312.655,0,99.34523,,
	08/31/2022 13:00:33.235,2.28362e+06,1296.42,351.00,6.00,-0.001060073,2.499982,-0.00265016,0.000383919,0.0003816941,0.001262966,0.001100655,1304.009,1296.245,0,99.42048,,
	08/31/2022 19:27:35.334,2.30684e+06,1274.71,360.00,6.00,-0.00106011,2.499999,-0.00265027,0.0003777159,0.0003753046,0.001242513,0.001082074,1282.651,1274.53,0,99.3616,,
	09/01/2022 01:47:14.259,2.32962e+06,1250.79,369.00,6.00,-0.001060073,2.499995,-0.00265018,0.0003705184,0.0003682599,0.001218886,0.001061515,1258.237,1250.615,0,99.39046,,
	09/01/2022 07:59:31.304,2.35196e+06,1224.94,378.00,6.00,-0.001060097,2.499991,-0.00265023,0.0003629824,0.0003606474,0.001194154,0.001039197,1232.715,1224.767,0,99.35671,,
	09/01/2022 14:05:07.977,2.37389e+06,1202.58,387.00,6.00,-0.001060064,2.49999,-0.00265015,0.000356378,0.0003540658,0.001172475,0.001019975,1210.193,1202.41,0,99.3512,,
	09/01/2022 20:02:49.623,2.39535e+06,1177.64,396.00,6.00,-0.001060114,2.499993,-0.00265028,0.0003488511,0.0003467363,0.001147836,0.0009985035,1184.623,1177.48,0,99.39378,,
	09/02/2022 01:55:00.955,2.41649e+06,1163.32,405.00,6.00,-0.001060073,2.49999,-0.00265017,0.0003445041,0.0003425103,0.001133451,0.0009863271,1169.86,1163.156,0,99.42126,,
	09/02/2022 07:40:37.865,2.43722e+06,1138.42,414.00,6.00,-0.001060124,2.49999,-0.0026503,0.0003372318,0.0003351887,0.001109641,0.000964814,1145.214,1138.247,0,99.39415,,
	09/02/2022 13:20:41.066,2.45763e+06,1126.35,423.00,6.00,-0.001060064,2.499993,-0.00265015,0.0003334737,0.0003316156,0.001097188,0.0009546081,1132.413,1126.196,0,99.4428,,
	09/02/2022 18:56:59.732,2.4778e+06,1107.77,432.00,6.00,-0.00106008,2.499999,-0.0026502,0.0003282424,0.0003261536,0.001080001,0.0009387113,1114.645,1107.608,0,99.36366,,
	09/03/2022 00:27:24.280,2.49763e+06,1090.6,441.00,6.00,-0.00106005,2.499988,-0.00265011,0.0003229486,0.0003210947,0.001062625,0.0009239736,1096.668,1090.445,0,99.42596,,
	09/03/2022 05:52:22.047,2.51713e+06,1072.36,450.00,6.00,-0.001060031,2.49999,-0.00265007,0.0003176968,0.0003157193,0.001045366,0.0009082977,1078.937,1072.201,0,99.37753,,
	09/03/2022 11:12:28.776,2.53633e+06,1057.09,459.00,6.00,-0.001060031,2.499997,-0.00265007,0.0003131004,0.0003112256,0.001030242,0.0008952804,1063.236,1056.943,0,99.40121,,
	09/03/2022 16:27:07.554,2.55521e+06,1037.18,468.00,6.00,-0.001060097,2.499972,-0.00265021,0.0003072448,0.0003053721,0.001011049,0.000878148,1043.352,1037.032,0,99.39048,,
	09/03/2022 21:36:14.820,2.57376e+06,1020.25,477.00,6.00,-0.001060058,2.499995,-0.00265014,0.0003021453,0.0003003829,0.0009943116,0.0008635882,1026.03,1020.106,0,99.41672,,
	09/04/2022 02:41:35.977,2.59208e+06,1011.3,486.00,6.00,-0.001060063,2.49999,-0.00265015,0.0002994654,0.0002977517,0.000985417,0.000856096,1016.932,1011.151,0,99.42776,,
	09/04/2022 07:44:05.448,2.61023e+06,999.3899,495.00,6.00,-0.001060078,2.499995,-0.00265019,0.0002960861,0.0002942343,0.0009742643,0.0008459323,1005.444,999.252,0,99.37457,,
	09/04/2022 12:08:14.227,2.62608e+06,980.4637,503.00,6.00,-0.001060075,2.499999,-0.00265019,0.000290368,0.0002886621,0.0009555406,0.0008295905,986.0562,980.2799,0,99.41251,,