Folder: ML-for-Si-Battery-Electrolyte/Cell-test-data/SiMP-LFP-PFOS3

Note: README.md
# ML-for-Si-Battery-Electrolyte

File: JB9_SiMPs-LFP-PDF3_GF260_Channel_64_StatisticByCycle.CSV
Date_Time                    ,Test Time (s),Step Time (s),Cycle Index,Step Index,Current (A),Voltage (V),Power (W),Charge Capacity (Ah),Discharge Capacity (Ah),Charge Energy (Wh),Discharge Energy (Wh),Charge Time (s),Discharge Time (s),V_Max_On_Cycle (V),Coulombic Efficiency (%),mAh/g
	05/16/2022 17:14:14.122,179940,62189.3,1,3,-0.0001590168,2.499997,-0.000397542,0.003292293,0.002746372,0.01084747,0.008155276,74539,62178.73,0,83.41821,,
	05/19/2022 21:50:04.927,455691,7688.19,5,6,-0.001060134,2.499991,-0.00265033,0.002310268,0.00226356,0.007505594,0.00655751,7846.125,7686.818,0,97.97826,,
	05/20/2022 14:33:54.937,515921,7321.66,9,6,-0.001060102,2.499982,-0.00265024,0.002196522,0.002155628,0.007130981,0.006239075,7459.821,7320.369,0,98.13823,,
	05/21/2022 06:32:20.102,573426,6988.17,13,6,-0.001060144,2.49998,-0.00265034,0.002094111,0.002057366,0.006798369,0.005954064,7112.009,6986.926,0,98.24533,,
	05/21/2022 21:48:15.912,628382,6696.79,17,6,-0.001059856,2.499995,-0.00264963,0.002006864,0.001971311,0.006515447,0.005707256,6815.956,6695.492,0,98.22844,,
	05/22/2022 12:26:34.316,681080,6436.88,21,6,-0.001059877,2.499999,-0.00264969,0.001926147,0.001894806,0.006255112,0.00548806,6542.128,6435.867,0,98.37285,,
	05/23/2022 02:32:50.347,731856,6207.86,25,6,-0.001059975,2.499997,-0.00264993,0.001856466,0.001827442,0.006030119,0.005295388,6305.284,6206.874,0,98.43658,,
	05/23/2022 16:09:22.083,780848.134,5998.417,29,6,-0.001059855,2.499974,-0.00264961,0.001793753,0.001765683,0.005827546,0.005118744,6092.232,5997.355,0,98.43513,,
	05/24/2022 05:19:45.359,828271,5816.24,33,6,-0.001059847,2.499995,-0.00264961,0.001737781,0.001712225,0.005646802,0.004965067,5902.05,5815.174,0,98.52937,,
	05/24/2022 18:06:40.452,874287,5646.69,37,6,-0.001059911,2.499997,-0.00264977,0.001687529,0.001662145,0.005484164,0.004821553,5731.418,5645.605,0,98.49578,,
	05/25/2022 06:32:20.002,919026,5514.07,41,6,-0.001060031,2.499995,-0.00265007,0.00164611,0.001623329,0.00534849,0.004713957,5590.262,5513.018,0,98.61604,,
	05/25/2022 18:37:09.828,962516,5338.72,45,6,-0.001059867,2.499991,-0.00264966,0.001592116,0.001571515,0.005175504,0.004561187,5407.347,5337.72,0,98.70607,,
	05/26/2022 06:21:40.475,1.00479e+06,5196.2,49,6,-0.001059942,2.499982,-0.00264984,0.001550025,0.00152967,0.005039516,0.004440652,5264.672,5195.313,0,98.68681,,
	05/26/2022 17:48:10.363,1.04598e+06,5064.61,53,6,-0.001059983,2.499997,-0.00264995,0.001510434,0.001490966,0.004911561,0.004328995,5130.271,5063.773,0,98.71112,,
	05/27/2022 04:56:47.967,1.08609e+06,4932.331,57,6,-0.001059958,2.499999,-0.00264989,0.001471463,0.001452047,0.004785316,0.004217001,4997.97,4931.544,0,98.68049,,
	05/27/2022 15:48:32.168,1.1252e+06,4811.34,61,6,-0.001059847,2.499997,-0.00264961,0.001434685,0.001416288,0.00466633,0.004113619,4872.676,4810.599,0,98.71773,,
	05/28/2022 02:24:10.971,1.16334e+06,4690.502,65,6,-0.001059981,2.499995,-0.00264995,0.001399401,0.001380811,0.004552205,0.004010948,4753.126,4689.638,0,98.67155,,
	05/28/2022 12:44:18.755,1.20054e+06,4580.72,69,6,-0.001059964,2.49999,-0.0026499,0.001366282,0.001348448,0.0044448,0.003917421,4640.427,4579.902,0,98.6947,,
	05/28/2022 22:50:02.171,1.23689e+06,4473,73,6,-0.001059953,2.499986,-0.00264987,0.001333948,0.00131676,0.004340018,0.003825373,4530.832,4472.135,0,98.7115,,
	05/29/2022 08:41:26.831,1.27237e+06,4371.6,77,6,-0.001059955,2.499988,-0.00264987,0.001302678,0.001286932,0.004238703,0.003738736,4424.528,4370.836,0,98.79126,,
	05/29/2022 18:20:12.997,1.3071e+06,4274.839,81,6,-0.001060155,2.499991,-0.00265038,0.001274619,0.001258595,0.004147653,0.003656551,4329.108,4274.034,0,98.74286,,
	05/30/2022 03:46:29.887,1.34108e+06,4185,85,6,-0.001060009,2.499997,-0.00265002,0.001247824,0.00123198,0.004060394,0.00357937,4238.194,4184.31,0,98.73029,,
	05/30/2022 13:00:36.567,1.37432e+06,4097.15,89,6,-0.001060183,2.499967,-0.00265042,0.001220905,0.001206038,0.003973093,0.003503961,4146.679,4096.384,0,98.78231,,
	05/30/2022 22:02:36.476,1.40684e+06,4008.72,93,6,-0.001059835,2.499997,-0.00264958,0.001194268,0.001180129,0.003886656,0.003428374,4056.052,4007.957,0,98.81616,,
	05/31/2022 06:53:56.971,1.43872e+06,3933.11,97,6,-0.001059928,2.499986,-0.00264981,0.001170963,0.001157853,0.003810758,0.003363585,3977.056,3932.498,0,98.88035,,
	05/31/2022 15:34:36.994,1.46996e+06,3850.79,101,6,-0.001060155,2.499993,-0.00265038,0.001147194,0.001133676,0.003733763,0.003292632,3896.18,3850.173,0,98.82165,,
	06/01/2022 00:04:45.506,1.50057e+06,3774.06,105,6,-0.001059837,2.499997,-0.00264959,0.001124416,0.001110905,0.003659369,0.003226373,3818.872,3773.341,0,98.79839,,
	06/01/2022 08:24:53.425,1.53058e+06,3702.149,109,6,-0.001059879,2.499986,-0.00264968,0.001102719,0.00108978,0.003588807,0.003164833,3745.24,3701.556,0,98.82661,,
	06/01/2022 16:35:10.339,1.56e+06,3626.18,113,6,-0.001060141,2.499991,-0.00265034,0.001080622,0.001067642,0.003517145,0.003099822,3670.15,3625.559,0,98.79886,,
	06/02/2022 00:35:39.730,1.58883e+06,3556.188,117,6,-0.00106016,2.49999,-0.00265039,0.001059875,0.001046954,0.00344952,0.003039477,3599.612,3555.609,0,98.7809,,
	06/02/2022 08:27:14.208,1.61712e+06,3490.94,121,6,-0.001059941,2.499982,-0.00264983,0.00103989,0.001027662,0.003384356,0.002982888,3531.878,3490.348,0,98.82416,,
	06/02/2022 16:09:35.674,1.64486e+06,3420.34,125,6,-0.001059886,2.499986,-0.0026497,0.001019464,0.001007024,0.003317845,0.002922388,3462.303,3419.806,0,98.77973,,
	06/02/2022 23:42:44.890,1.67205e+06,3353.85,129,6,-0.001059932,2.499995,-0.00264982,0.0009990382,0.0009873098,0.003251288,0.002864832,3393.108,3353.336,0,98.82603,,
	06/03/2022 07:07:11.503,1.69872e+06,3287.99,133,6,-0.001059958,2.499988,-0.00264988,0.0009799547,0.0009679595,0.003189225,0.002808095,3328.432,3287.469,0,98.77595,,
	06/03/2022 14:22:37.760,1.72484e+06,3218.65,137,6,-0.001059883,2.499995,-0.0026497,0.0009591127,0.0009474659,0.003121334,0.002748113,3257.564,3218.107,0,98.78568,,
	06/03/2022 21:28:57.123,1.75042e+06,3155.08,141,6,-0.001060002,2.499997,-0.00265,0.0009397737,0.0009288273,0.003058454,0.002693601,3191.976,3154.526,0,98.83521,,
	06/04/2022 04:26:57.633,1.7755e+06,3090.83,145,6,-0.001060039,2.49998,-0.00265008,0.0009216501,0.000909925,0.002999366,0.002638249,3130.398,3090.304,0,98.72782,,
	06/04/2022 11:16:11.270,1.80006e+06,3026.3,149,6,-0.001059972,2.499999,-0.00264993,0.000901613,0.0008908616,0.002934183,0.002582283,3062.365,3025.647,0,98.80753,,
	06/04/2022 17:56:23.094,1.82407e+06,2958.38,153,6,-0.001059856,2.499997,-0.00264964,0.0008810894,0.0008708941,0.002867521,0.002523688,2992.437,2957.931,0,98.84287,,
	06/05/2022 00:27:54.992,1.84756e+06,2893.01,157,6,-0.001060155,2.499991,-0.00265038,0.0008625526,0.0008517021,0.002807131,0.00246762,2929.553,2892.472,0,98.74204,,
	06/05/2022 06:50:40.100,1.87053e+06,2828.43,161,6,-0.001059886,2.499995,-0.00264971,0.0008434107,0.000832613,0.002744784,0.002411909,2864.51,2828.027,0,98.71976,,
	06/05/2022 13:04:55.694,1.89298e+06,2763.43,165,6,-0.001059841,2.499997,-0.0026496,0.0008239503,0.0008134908,0.002681392,0.002356027,2798.51,2762.968,0,98.73056,,
	06/05/2022 19:10:17.974,1.9149e+06,2700.621,169,6,-0.001059837,2.499999,-0.00264959,0.0008054218,0.0007949759,0.002620764,0.00230234,2735.453,2700.266,0,98.70305,,
	06/06/2022 01:07:26.118,1.93633e+06,2635.97,173,6,-0.001059883,2.499999,-0.00264971,0.0007865068,0.0007759539,0.002559385,0.002246743,2671.295,2635.534,0,98.65826,,
	06/06/2022 06:56:12.092,1.95726e+06,2575.62,177,6,-0.001059984,2.499999,-0.00264996,0.0007691104,0.0007582295,0.002502301,0.002195403,2612.313,2575.115,0,98.58526,,
	06/06/2022 12:36:04.853,1.97765e+06,2503.08,181,6,-0.001059856,2.499999,-0.00264964,0.0007472619,0.0007368094,0.002431465,0.002132329,2538.028,2502.674,0,98.60122,,
	06/06/2022 18:06:09.843,1.99746e+06,2435.03,185,6,-0.001060138,2.499986,-0.00265033,0.0007269104,0.0007169631,0.002365379,0.002074526,2468.785,2434.684,0,98.63156,,
	06/06/2022 23:27:47.284,2.01675e+06,2371.14,189,6,-0.001059891,2.499997,-0.00264972,0.0007074548,0.0006979625,0.002302194,0.002018902,2402.801,2370.708,0,98.65824,,
	06/07/2022 04:40:57.615,2.03554e+06,2311.72,193,6,-0.001059972,2.499986,-0.00264992,0.0006895321,0.0006805341,0.002243455,0.00196841,2341.977,2311.337,0,98.69506,,
	06/07/2022 09:47:00.605,2.05391e+06,2255.486,197,6,-0.001059981,2.499982,-0.00264993,0.00067372,0.0006639777,0.002191979,0.001920368,2288.314,2255.122,0,98.55396,,
	06/07/2022 13:30:10.557,2.0673e+06,2199.41,200,6,-0.001060153,2.499993,-0.00265038,0.0006568229,0.0006475522,0.002137047,0.001871974,2230.762,2199.063,0,98.58855,,

File: JB9_SiMPs-LFP-PDF3_GF260_Channel_64_StatisticByStep.CSV
Date_Time                    ,Test Time (s),Step Time (s),Cycle Index,Step Index,Current (A),Voltage (V),Power (W),Charge Capacity (Ah),Discharge Capacity (Ah),Charge Energy (Wh),Discharge Energy (Wh),Charge Time (s),Discharge Time (s),V_Max_On_Cycle (V),Coulombic Efficiency (%),mAh/g
	05/15/2022 03:15:13.950,43200,43200,1.00,1.00,0,0.2892427,0,0,0,0,0,0,0,0,0,,
	05/19/2022 15:20:01.035,432287,8336.84,4.00,5.00,0.001060002,3.500001,0.00371001,0.002454284,2.914844E-10,0.007994233,7.287739E-10,8335.334,0.0058,0,1.187656E-05,,
	05/20/2022 06:18:02.444,486168,7504.5,7.00,6.00,-0.001059895,2.499999,-0.00264974,0.002251594,0.002209117,0.007310962,0.0063961,7647.158,7503.116,0,98.11344,,
	05/20/2022 20:39:45.771,537872,7306.99,11.00,5.00,0.001059959,3.500003,0.00370986,0.002151087,2.267527E-09,0.006980873,5.669154E-09,7305.572,0.0077,0,0.0001054131,,
	05/21/2022 10:24:55.167,587381,6915.16,14.00,6.00,-0.00105987,2.499984,-0.00264966,0.002072452,0.002035557,0.006728142,0.00589168,7038.795,6913.866,0,98.21973,,
	05/21/2022 23:40:38.311,635124,6742.37,18.00,5.00,0.001059954,3.500005,0.00370984,0.001984802,2.355257E-09,0.006444728,5.887885E-09,6741.125,0.007999999,0,0.0001186646,,
	05/22/2022 12:26:34.316,681080,6436.88,21.00,6.00,-0.001059877,2.499999,-0.00264969,0.001926147,0.001894806,0.006255112,0.00548806,6542.128,6435.867,0,98.37285,,
	05/23/2022 00:49:22.463,725649,6306.33,25.00,5.00,0.001059971,3.500005,0.0037099,0.001856465,1.972521E-09,0.006030115,4.931095E-09,6305.28,0.006,0,0.0001062515,,
	05/23/2022 12:47:50.276,768756,6051.45,28.00,6.00,-0.001060164,2.499988,-0.0026504,0.001808384,0.001781673,0.005874906,0.005164396,6141.76,6050.309,0,98.52293,,
	05/24/2022 00:26:42.335,810688,5946.73,32.00,5.00,0.001059994,3.500007,0.00370999,0.001750618,2.119868E-09,0.005688267,5.299408E-09,5945.659,0.0072,0,0.0001210926,,
	05/24/2022 11:46:03.672,851450,5731.35,35.00,6.00,-0.001059851,2.49999,-0.00264962,0.001712261,0.001687102,0.005564144,0.004893274,5815.505,5730.354,0,98.53067,,
	05/24/2022 22:48:49.168,891215,5640.28,39.00,5.00,0.001059991,3.500012,0.00370998,0.001660394,1.884434E-09,0.00539661,4.711319E-09,5639.124,0.0056,0,0.0001134932,,
	05/25/2022 09:36:11.481,930058,5474.05,42.00,6.00,-0.001059835,2.499997,-0.00264958,0.001636049,0.001611507,0.005315178,0.004679372,5556.269,5472.956,0,98.49995,,
	05/25/2022 20:06:44.729,967891,5374.87,46.00,5.00,0.001060008,3.500001,0.00371003,0.001582282,1.73696E-09,0.005143749,4.342147E-09,5373.855,0.0059,0,0.0001097757,,
	05/26/2022 06:21:40.475,1.00479e+06,5196.2,49.00,6.00,-0.001059942,2.499982,-0.00264984,0.001550025,0.00152967,0.005039516,0.004440652,5264.672,5195.313,0,98.68681,,
	05/26/2022 16:23:45.733,1.04091e+06,5131.1,53.00,5.00,0.001059876,3.500014,0.00370958,0.001510432,1.972769E-09,0.004911554,4.931592E-09,5130.266,0.0058,0,0.0001306096,,
	05/27/2022 02:11:16.839,1.07616e+06,4963.7,56.00,6.00,-0.001059997,2.499997,-0.00264999,0.001481171,0.001461282,0.004816748,0.004243494,5030.843,4962.836,0,98.65722,,
	05/27/2022 11:46:26.810,1.11067e+06,4902.1,60.00,5.00,0.001059855,3.500001,0.00370949,0.001442983,1.854904E-09,0.004693285,4.63748E-09,4901.282,0.0063,0,0.0001285466,,
	05/27/2022 21:08:22.832,1.14439e+06,4750.3,63.00,6.00,-0.001059927,2.499999,-0.00264982,0.001417055,0.001398451,0.004609345,0.004061797,4813.138,4749.588,0,98.68711,,
	05/28/2022 06:18:51.052,1.17742e+06,4695.24,67.00,5.00,0.001059911,3.500005,0.00370969,0.001382146,1.972829E-09,0.004496341,4.931786E-09,4694.327,0.0058,0,0.0001427366,,
	05/28/2022 15:17:04.585,1.20971e+06,4554.75,70.00,6.00,-0.001059956,2.499999,-0.00264989,0.001357412,0.001340795,0.004415961,0.003895173,4610.337,4553.918,0,98.77583,,
	05/29/2022 00:05:05.320,1.24139e+06,4503.12,74.00,5.00,0.001059899,3.500003,0.00370965,0.001325569,1.472294E-09,0.004312921,3.680756E-09,4502.244,0.005,0,0.0001110688,,
	05/29/2022 08:41:26.831,1.27237e+06,4371.6,77.00,6.00,-0.001059955,2.499988,-0.00264987,0.001302678,0.001286932,0.004238703,0.003738736,4424.528,4370.836,0,98.79126,,
	05/29/2022 17:08:58.134,1.30282e+06,4329.74,81.00,5.00,0.00105998,3.500001,0.00370993,0.001274617,1.796109E-09,0.004147646,4.49013E-09,4329.102,0.0061,0,0.0001409137,,
	05/30/2022 01:26:05.870,1.33265e+06,4211.77,84.00,6.00,-0.001059944,2.499988,-0.00264985,0.001255149,0.001239788,0.004084229,0.003602145,4263.012,4210.894,0,98.77621,,
	05/30/2022 09:34:33.735,1.36196e+06,4170.62,88.00,5.00,0.001059925,3.50001,0.00370975,0.001227671,1.678409E-09,0.003995047,4.195851E-09,4169.797,0.0057,0,0.0001367149,,
	05/30/2022 17:33:02.371,1.39067e+06,4051.09,91.00,6.00,-0.001059814,2.499999,-0.00264953,0.001207009,0.001192678,0.003928112,0.003464715,4099.291,4050.266,0,98.81264,,
	05/31/2022 01:23:27.396,1.41889e+06,4020.64,95.00,5.00,0.001059899,3.500003,0.00370965,0.001183586,1.884314E-09,0.003851779,4.710867E-09,4019.968,0.0064,0,0.0001592038,,
	05/31/2022 09:05:07.619,1.44659e+06,3910.99,98.00,6.00,-0.001059914,2.499991,-0.00264978,0.001165623,0.001151291,0.003793369,0.003344324,3959.032,3910.251,0,98.77039,,
	05/31/2022 16:39:14.929,1.47384e+06,3877.9,102.00,5.00,0.00105996,3.500003,0.00370986,0.001141604,1.531306E-09,0.003715503,3.828136E-09,3877.255,0.0052,0,0.0001341364,,
	06/01/2022 00:04:45.506,1.50057e+06,3774.06,105.00,6.00,-0.001059837,2.499997,-0.00264959,0.001124416,0.001110905,0.003659369,0.003226373,3818.872,3773.341,0,98.79839,,
	06/01/2022 07:23:11.252,1.52688e+06,3746,109.00,5.00,0.001059959,3.500016,0.00370987,0.001102718,2.296447E-09,0.003588803,5.740877E-09,3745.236,0.0078,0,0.0002082534,,
	06/01/2022 14:33:33.359,1.5527e+06,3648.4,112.00,6.00,-0.001059911,2.499997,-0.00264977,0.001086676,0.001073996,0.003536525,0.003118556,3690.681,3647.816,0,98.83316,,
	06/01/2022 21:36:48.772,1.57809e+06,3615.67,116.00,5.00,0.001060013,3.500005,0.00371005,0.001064428,2.00247E-09,0.003464512,5.006119E-09,3615.052,0.006,0,0.0001881263,,
	06/02/2022 04:32:33.608,1.60304e+06,3525.5,119.00,6.00,-0.001059866,2.499995,-0.00264966,0.001050051,0.001037816,0.003417521,0.003012788,3566.446,3525.004,0,98.83482,,
	06/02/2022 11:21:58.226,1.6276e+06,3495.79,123.00,5.00,0.001059892,3.50001,0.00370963,0.001029036,1.648691E-09,0.0033491,4.121631E-09,3495.143,0.0056,0,0.0001602171,,
	06/02/2022 18:03:48.000,1.65171e+06,3404.32,126.00,6.00,-0.001060171,2.499984,-0.00265041,0.001015052,0.001002248,0.003303373,0.002908699,3447.441,3403.756,0,98.73858,,
	06/03/2022 00:39:03.128,1.67543e+06,3378.21,130.00,5.00,0.00105995,3.500009,0.00370983,0.0009944591,2.1495E-09,0.003236444,5.373487E-09,3377.639,0.0065,0,0.0002161476,,
	06/03/2022 07:07:11.503,1.69872e+06,3287.99,133.00,6.00,-0.001059958,2.499988,-0.00264988,0.0009799547,0.0009679595,0.003189225,0.002808095,3328.432,3287.469,0,98.77595,,
	06/03/2022 13:28:59.090,1.72163e+06,3258.1,137.00,5.00,0.001059902,3.500001,0.00370966,0.0009591108,1.678113E-09,0.003121328,4.195228E-09,3257.558,0.0057,0,0.0001749655,,
	06/03/2022 19:43:09.445,1.74408e+06,3169.44,140.00,6.00,-0.00105988,2.499997,-0.0026497,0.0009443421,0.0009329767,0.003073384,0.002705731,3207.434,3168.866,0,98.79648,,
	06/04/2022 01:51:26.496,1.76617e+06,3147.06,144.00,5.00,0.001059848,3.500009,0.00370948,0.0009263708,1.530998E-09,0.003014834,3.827362E-09,3146.514,0.0052,0,0.0001652684,,
	06/04/2022 07:52:42.680,1.78785e+06,3057.21,147.00,6.00,-0.001059947,2.499986,-0.00264985,0.0009119047,0.0008999805,0.002967596,0.002609126,3097.385,3056.655,0,98.69239,,
	06/04/2022 13:47:36.989,1.80914e+06,3027.75,151.00,5.00,0.001059943,3.500005,0.00370981,0.0008913077,1.501386E-09,0.002900575,3.753349E-09,3027.293,0.0051,0,0.0001684476,,
	06/04/2022 19:35:04.673,1.82999e+06,2941.3,154.00,6.00,-0.001060151,2.49999,-0.00265037,0.0008773195,0.000865886,0.002855173,0.002509153,2979.739,2940.756,0,98.69676,,
	06/05/2022 01:16:28.773,1.85047e+06,2913.75,158.00,5.00,0.001059968,3.500005,0.00370989,0.0008577862,1.531291E-09,0.002791585,3.827981E-09,2913.313,0.0052,0,0.0001785167,,
	06/05/2022 06:50:40.100,1.87053e+06,2828.43,161.00,6.00,-0.001059886,2.499995,-0.00264971,0.0008434107,0.000832613,0.002744784,0.002411909,2864.51,2828.027,0,98.71976,,
	06/05/2022 12:18:52.242,1.89022e+06,2798.9,165.00,5.00,0.001059966,3.500007,0.00370989,0.0008239485,2.267845E-09,0.002681386,5.669321E-09,2798.505,0.0064,0,0.0002752411,,
	06/05/2022 17:39:41.427,1.90947e+06,2714.71,168.00,6.00,-0.001060152,2.499988,-0.00265037,0.0008096369,0.0007992937,0.002634679,0.002314838,2749.794,2714.255,0,98.7225,,
	06/05/2022 22:54:45.552,1.92837e+06,2688.65,172.00,5.00,0.001059964,3.500005,0.00370988,0.0007914779,1.972569E-09,0.002575626,4.931359E-09,2688.182,0.0056,0,0.0002492261,,
	06/06/2022 04:02:47.461,1.94685e+06,2604.57,175.00,6.00,-0.001059946,2.49999,-0.00264985,0.0007769487,0.0007667405,0.002527926,0.00222005,2638.913,2604.162,0,98.68612,,
	06/06/2022 09:04:56.324,1.96498e+06,2578.83,179.00,5.00,0.00105992,3.500007,0.00370973,0.0007591218,2.031584E-09,0.002469841,5.078676E-09,2578.354,0.0069,0,0.0002676229,,
	06/06/2022 13:59:23.306,1.98265e+06,2481.86,182.00,6.00,-0.001060166,2.499988,-0.0026504,0.0007408482,0.0007305752,0.002410722,0.00211398,2516.221,2481.499,0,98.61335,,
	06/06/2022 18:47:03.773,1.99991e+06,2453.9,186.00,5.00,0.001059983,3.500005,0.00370995,0.0007224062,2.120367E-09,0.002350605,5.301163E-09,2453.506,0.0064,0,0.0002935145,,
	06/06/2022 23:27:47.284,2.01675e+06,2371.14,189.00,6.00,-0.001059891,2.499997,-0.00264972,0.0007074548,0.0006979625,0.002302194,0.002018902,2402.801,2370.708,0,98.65824,,
	06/07/2022 04:02:25.876,2.03323e+06,2342.33,193.00,5.00,0.00105992,3.50002,0.00370974,0.0006895303,2.120128E-09,0.002243449,5.299981E-09,2341.971,0.0064,0,0.0003074743,,
	06/07/2022 08:31:16.424,2.04936e+06,2271.02,196.00,6.00,-0.001060004,2.499999,-0.00265001,0.0006782869,0.0006685818,0.002206848,0.00193378,2303.839,2270.676,0,98.56917,,
	06/07/2022 12:53:31.127,2.0651e+06,2231.16,200.00,5.00,0.001059999,3.500001,0.00371,0.0006568216,1.8254E-09,0.002137043,4.563328E-09,2230.758,0.0054,0,0.0002779141,,
	06/07/2022 13:30:10.557,2.0673e+06,2199.41,200.00,6.00,-0.001060153,2.499993,-0.00265038,0.0006568229,0.0006475522,0.002137047,0.001871974,2230.762,2199.063,0,98.58855,,