Folder: ML-for-Si-Battery-Electrolyte/Cell-test-data/SiMP-LFP-PFP3

Note: README.md
# ML-for-Si-Battery-Electrolyte

File: JB7_SiMP-LFP-PFP3_03C_Channel_91_StatisticByCycle.CSV
Date_Time                    ,Test Time (s),Step Time (s),Cycle Index,Step Index,Current (A),Voltage (V),Power (W),Charge Capacity (Ah),Discharge Capacity (Ah),Charge Energy (Wh),Discharge Energy (Wh),Charge Time (s),Discharge Time (s),V_Max_On_Cycle (V),Coulombic Efficiency (%),mAh/g
	07/21/2022 17:13:32.690,182256.542,62974.8,1,3,-0.0001589956,2.499999,-0.000397489,0.003359664,0.002780787,0.01115204,0.008239089,76068.3,62965.49,0,82.7698,,
	07/24/2022 21:08:31.356,455555,7079.69,5,6,-0.00106017,2.499995,-0.00265042,0.002133557,0.002084348,0.007065822,0.005936029,7246.185,7078.616,0,97.69357,,
	07/25/2022 12:21:20.991,510325,6617.52,9,6,-0.001059909,2.49999,-0.00264976,0.001988088,0.001948238,0.006584303,0.00554683,6751.646,6616.545,0,97.9956,,
	07/26/2022 02:38:01.221,561725,6221.143,13,6,-0.001060124,2.499978,-0.00265029,0.001865235,0.001831609,0.006180356,0.005216498,6334.465,6220.246,0,98.19723,,
	07/26/2022 16:06:27.437,610231,5884.51,17,6,-0.001059856,2.499991,-0.00264963,0.001763375,0.001732203,0.005845983,0.004936555,5988.885,5883.666,0,98.23222,,
	07/27/2022 04:52:40.079,656204,5590.76,21,6,-0.001060182,2.499991,-0.00265045,0.001674576,0.001645993,0.005553577,0.00469347,5686.866,5589.903,0,98.29311,,
	07/27/2022 17:02:04.146,699968,5330.77,25,6,-0.00105987,2.499993,-0.00264967,0.001595034,0.001569198,0.00529156,0.004477113,5417.296,5329.974,0,98.38027,,
	07/28/2022 04:37:45.995,741710,5086.37,29,6,-0.001059858,2.499993,-0.00264964,0.001520268,0.001497336,0.005045243,0.004273509,5162.998,5085.673,0,98.49158,,
	07/28/2022 15:41:19.214,781523.066,4845.76,33,6,-0.001059903,2.499993,-0.00264975,0.00144653,0.001426482,0.004802809,0.004071501,4912.886,4845.129,0,98.61408,,
	07/29/2022 02:15:09.124,819553,4633.21,37,6,-0.001059877,2.499995,-0.00264969,0.001386077,0.001363915,0.00460331,0.003894567,4707.481,4632.597,0,98.40107,,
	07/29/2022 12:22:47.833,856012,4455.722,41,6,-0.001059847,2.499995,-0.00264961,0.0013305,0.001311622,0.004419785,0.003746371,4518.635,4455.116,0,98.58118,,
	07/29/2022 22:08:31.773,891156,4294.43,45,6,-0.00105991,2.499972,-0.00264975,0.001281137,0.001264142,0.004256001,0.003613107,4351.291,4293.821,0,98.67344,,
	07/30/2022 07:28:35.191,924759,4111.3,49,6,-0.001059914,2.499999,-0.00264978,0.001226125,0.00121027,0.004075235,0.0034584,4164.288,4110.76,0,98.70692,,
	07/30/2022 16:28:28.817,957153,3974.93,53,6,-0.001059972,2.499991,-0.00264992,0.001184903,0.001170151,0.003938925,0.003345799,4024.666,3974.38,0,98.755,,
	07/31/2022 01:08:54.731,988379,3820.01,57,6,-0.001059958,2.499997,-0.00264989,0.001138744,0.001124532,0.003786818,0.003214414,3867.616,3819.525,0,98.75198,,
	07/31/2022 09:30:26.353,1018470.205,3694.695,61,6,-0.001059886,2.499995,-0.00264971,0.001101401,0.001087633,0.003662945,0.0031098,3740.665,3694.268,0,98.74996,,
	07/31/2022 17:35:08.934,1.04755e+06,3567.39,65,6,-0.001059948,2.499991,-0.00264986,0.001062981,0.001050186,0.003535951,0.003002031,3610.326,3566.907,0,98.79627,,
	08/01/2022 01:25:53.381,1.0758e+06,3463.85,69,6,-0.001059905,2.499986,-0.00264975,0.0010324,0.001019693,0.003434277,0.002915432,3506.499,3463.432,0,98.76913,,
	08/01/2022 09:01:28.956,1.10313e+06,3362.12,73,6,-0.001059925,2.499993,-0.00264981,0.001001043,0.0009897454,0.003330483,0.002830481,3399.889,3361.681,0,98.87146,,
	08/01/2022 16:24:26.559,1.12971e+06,3284.95,77,6,-0.001059956,2.499993,-0.00264988,0.000976353,0.0009670567,0.003248147,0.002766912,3316.314,3284.536,0,99.04786,,
	08/01/2022 23:39:59.922,1.15584e+06,3229.6,81,6,-0.001059961,2.499988,-0.00264989,0.0009597606,0.0009507709,0.003191872,0.002722433,3259.945,3229.191,0,99.06333,,
	08/02/2022 06:46:27.633,1.18143e+06,3152.07,85,6,-0.001059949,2.499984,-0.00264986,0.0009387005,0.000927951,0.00312152,0.002657797,3188.186,3151.649,0,98.85486,,
	08/02/2022 13:38:07.689,1.20613e+06,3017.09,89,6,-0.001059896,2.499984,-0.00264972,0.0008966253,0.0008881516,0.002984294,0.002538619,3045.169,3016.712,0,99.05494,,
	08/02/2022 20:16:45.570,1.23005e+06,2947.22,93,6,-0.001059891,2.49998,-0.00264971,0.0008768667,0.0008676039,0.002918647,0.002480448,2978.118,2946.825,0,98.94366,,
	08/03/2022 02:46:33.779,1.25344e+06,2879.69,97,6,-0.001059903,2.499991,-0.00264975,0.000855898,0.0008477043,0.002849096,0.002423313,2906.97,2879.285,0,99.04269,,
	08/03/2022 09:07:16.142,1.27628e+06,2820.88,101,6,-0.001059878,2.499988,-0.00264968,0.0008375028,0.000830402,0.002787951,0.002373931,2844.331,2820.503,0,99.15215,,
	08/03/2022 15:20:53.757,1.2987e+06,2776.45,105,6,-0.001059925,2.499995,-0.00264981,0.0008246145,0.0008173469,0.002744702,0.002337645,2800.838,2776.123,0,99.11868,,
	08/03/2022 21:26:23.414,1.32063e+06,2704.011,109,6,-0.00105991,2.499988,-0.00264976,0.0008025463,0.000796008,0.002672123,0.002274909,2725.729,2703.677,0,99.1853,,
	08/04/2022 03:26:43.377,1.34225e+06,2673.14,113,6,-0.001059935,2.499991,-0.00264983,0.0007948249,0.0007869278,0.002645531,0.002250147,2699.597,2672.8,0,99.00644,,
	08/04/2022 09:17:47.205,1363311.057,2597.91,117,6,-0.001059947,2.499999,-0.00264987,0.0007709698,0.0007647897,0.002567314,0.002185275,2618.515,2597.569,0,99.1984,,
	08/04/2022 15:03:18.481,1.38404e+06,2568.3,121,6,-0.001059907,2.499995,-0.00264976,0.0007627966,0.0007560631,0.00253969,0.002161104,2590.8,2567.955,0,99.11727,,
	08/04/2022 20:43:39.396,1.40446e+06,2528.92,125,6,-0.001059923,2.499999,-0.00264981,0.00074997,0.0007444952,0.002496983,0.00212815,2547.296,2528.601,0,99.27,,
	08/05/2022 02:17:20.743,1.42448e+06,2468.695,129,6,-0.001059914,2.499999,-0.00264978,0.0007331909,0.0007267335,0.002441621,0.00207622,2490.237,2468.387,0,99.11928,,
	08/05/2022 07:44:11.031,1.44409e+06,2432.25,133,6,-0.001059882,2.49999,-0.00264969,0.0007205863,0.0007159882,0.002399772,0.002045217,2447.351,2431.906,0,99.3619,,
	08/05/2022 13:06:34.386,1.46344e+06,2398.81,137,6,-0.001059891,2.499997,-0.00264972,0.0007112573,0.0007061705,0.002368669,0.002017724,2415.829,2398.495,0,99.28481,,
	08/05/2022 18:27:11.994,1.48268e+06,2388.92,141,6,-0.00105994,2.499978,-0.00264983,0.0007082853,0.0007032635,0.002358003,0.002010666,2405.745,2388.609,0,99.29099,,
	08/05/2022 23:43:32.831,1.50166e+06,2347.05,145,6,-0.00105987,2.499993,-0.00264967,0.0006960882,0.0006909223,0.002317484,0.001974658,2364.246,2346.732,0,99.25787,,
	08/06/2022 04:53:16.487,1.52024e+06,2292.76,149,6,-0.001059886,2.499993,-0.00264971,0.000680536,0.000674926,0.002266382,0.001927615,2311.395,2292.445,0,99.17565,,
	08/06/2022 09:56:23.975,1.53843e+06,2250.06,153,6,-0.001059892,2.499986,-0.00264972,0.0006669813,0.0006623561,0.002221714,0.001891028,2265.278,2249.778,0,99.30656,,
	08/06/2022 14:55:37.643,1.55638e+06,2233.96,157,6,-0.001059896,2.499999,-0.00264974,0.0006622503,0.0006576384,0.002205608,0.001878452,2249.369,2233.652,0,99.3036,,
	08/06/2022 19:54:21.192,1.57431e+06,2224,161,6,-0.001059914,2.499999,-0.00264978,0.0006595443,0.0006547052,0.00219597,0.001870839,2240.178,2223.701,0,99.2663,,
	08/07/2022 00:48:31.978,1.59196e+06,2180.255,165,6,-0.001059898,2.499988,-0.00264973,0.00064666,0.0006418165,0.002153495,0.001832935,2196.353,2179.96,0,99.25101,,
	08/07/2022 05:36:50.373,1.60925e+06,2139.75,169,6,-0.001059856,2.49999,-0.00264963,0.0006344157,0.000629884,0.002113143,0.00179793,2154.716,2139.443,0,99.2857,,
	08/07/2022 10:20:14.442,1.62626e+06,2105.85,173,6,-0.001059917,2.499991,-0.00264978,0.0006235562,0.0006199123,0.002077357,0.001768807,2117.788,2105.543,0,99.41563,,
	08/07/2022 15:00:41.610,1.64309e+06,2097.95,177,6,-0.001059947,2.499999,-0.00264987,0.0006213756,0.0006175783,0.002069726,0.001762893,2110.541,2097.603,0,99.3889,,
	08/07/2022 19:40:00.907,1.65984e+06,2076.74,181,6,-0.001059898,2.499997,-0.00264974,0.0006158564,0.0006113257,0.002051121,0.001745141,2091.7,2076.363,0,99.26434,,
	08/08/2022 00:15:24.675,1676368.527,2048.27,185,6,-0.001059853,2.499993,-0.00264963,0.0006064488,0.0006029225,0.002019925,0.00172071,2059.748,2047.88,0,99.41853,,
	08/08/2022 04:46:21.337,1.69263e+06,2011.5,189,6,-0.00105985,2.499991,-0.00264962,0.0005965054,0.0005921058,0.001987208,0.001688971,2025.917,2011.135,0,99.26244,,
	08/08/2022 09:13:09.374,1.70863e+06,1985.63,193,6,-0.001059854,2.499991,-0.00264963,0.0005886288,0.0005845035,0.001961269,0.00166709,1999.069,1985.304,0,99.29918,,
	08/08/2022 13:37:33.914,1.7245e+06,1978.94,197,6,-0.001059861,2.499988,-0.00264964,0.0005860639,0.0005825247,0.001952308,0.001662002,1990.518,1978.613,0,99.39612,,
	08/08/2022 16:55:28.937,1.73637e+06,1967.37,200,6,-0.001059896,2.499986,-0.00264973,0.0005827526,0.0005791146,0.001941221,0.001652381,1979.255,1967.016,0,99.37572,,

File: JB7_SiMP-LFP-PFP3_03C_Channel_91_StatisticByStep.CSV
Date_Time                    ,Test Time (s),Step Time (s),Cycle Index,Step Index,Current (A),Voltage (V),Power (W),Charge Capacity (Ah),Discharge Capacity (Ah),Charge Energy (Wh),Discharge Energy (Wh),Charge Time (s),Discharge Time (s),V_Max_On_Cycle (V),Coulombic Efficiency (%),mAh/g
	07/20/2022 02:35:56.148,43200,43200,1.00,1.00,0,0.2788239,0,0,0,0,0,0,0,0,0,,
	07/24/2022 15:07:58.809,433923,7973,4.00,5.00,0.001059982,3.500009,0.00370995,0.002347234,4.151848E-10,0.007786741,1.03798E-09,7971.788,0.0094,0,1.768826E-05,,
	07/25/2022 04:52:13.228,483377,6828.85,7.00,6.00,-0.001059824,2.499995,-0.00264955,0.002052416,0.002010487,0.006796492,0.005723247,6970.215,6827.849,0,97.95712,,
	07/25/2022 17:49:33.359,530017,6547.83,11.00,5.00,0.001059962,3.500001,0.00370987,0.001927613,2.738277E-09,0.006385005,6.845884E-09,6546.802,0.0093,0,0.0001420554,,
	07/26/2022 06:04:25.104,574109,6129.62,14.00,6.00,-0.00106012,2.499997,-0.0026503,0.001841348,0.001804748,0.006101609,0.005141354,6253.269,6128.71,0,98.01232,,
	07/26/2022 17:45:11.925,616156,5924.46,18.00,5.00,0.001059958,3.500012,0.00370987,0.001744109,2.914647E-09,0.005781638,7.28631E-09,5923.606,0.0099,0,0.0001671138,,
	07/27/2022 04:52:40.079,656204,5590.76,21.00,6.00,-0.001060182,2.499991,-0.00265045,0.001674576,0.001645993,0.005553577,0.00469347,5686.866,5589.903,0,98.29311,,
	07/27/2022 15:33:13.353,694637,5418.09,25.00,5.00,0.001059928,3.500009,0.00370976,0.001595031,2.767464E-09,0.005291552,6.918906E-09,5417.289,0.0094,0,0.0001735053,,
	07/28/2022 01:46:55.885,731460,5140.51,28.00,6.00,-0.001059828,2.499995,-0.00264956,0.00153964,0.001513485,0.00510886,0.00431912,5228.733,5139.802,0,98.3012,,
	07/28/2022 11:36:54.200,766858,4991.56,32.00,5.00,0.001060054,3.500018,0.00371021,0.001469579,2.56139E-09,0.004878417,6.403337E-09,4990.889,0.007999999,0,0.0001742941,,
	07/28/2022 21:02:05.276,800769,4744.69,35.00,6.00,-0.001059868,2.499978,-0.00264965,0.001419487,0.001396696,0.004713052,0.003987888,4821.035,4744.066,0,98.39443,,
	07/29/2022 06:06:20.424,833424,4616.46,39.00,5.00,0.001059989,3.500001,0.00370996,0.001359107,1.413238E-09,0.004514232,3.533198E-09,4615.866,0.0048,0,0.0001039828,,
	07/29/2022 14:50:51.782,864896,4412.51,42.00,6.00,-0.001059886,2.499969,-0.00264968,0.001316333,0.001298972,0.004373336,0.003710566,4470.779,4411.921,0,98.68108,,
	07/29/2022 23:20:12.353,895456,4300.55,46.00,5.00,0.001059968,3.500005,0.00370989,0.001266034,2.384857E-09,0.004206694,5.962438E-09,4299.947,0.0081,0,0.0001883724,,
	07/30/2022 07:28:35.191,924759,4111.3,49.00,6.00,-0.001059914,2.499999,-0.00264978,0.001226125,0.00121027,0.004075235,0.0034584,4164.288,4110.76,0,98.70692,,
	07/30/2022 15:22:13.862,953178,4025.21,53.00,5.00,0.001059884,3.50001,0.0037096,0.001184901,1.530983E-09,0.003938916,3.827443E-09,4024.658,0.0052,0,0.0001292077,,
	07/30/2022 23:00:46.545,980690,3850,56.00,6.00,-0.0010599,2.499995,-0.00264974,0.001146917,0.001133379,0.003813541,0.003239195,3895.424,3849.5,0,98.81967,,
	07/31/2022 06:24:30.480,1.00731e+06,3768.37,60.00,5.00,0.001059986,3.500026,0.00370998,0.001109384,1.531015E-09,0.003689236,3.827516E-09,3767.872,0.0052,0,0.0001380059,,
	07/31/2022 13:34:56.120,1.03314e+06,3626.8,63.00,6.00,-0.001059939,2.49998,-0.00264983,0.001080674,0.001067667,0.003594263,0.003052454,3670.388,3626.306,0,98.79639,,
	07/31/2022 20:33:32.524,1.05826e+06,3568.93,67.00,5.00,0.001059917,3.500001,0.00370971,0.001050605,3.562696E-09,0.003494484,8.906363E-09,3568.474,0.0121,0,0.000339109,,
	08/01/2022 03:21:03.294,1.08271e+06,3435.76,70.00,6.00,-0.001059914,2.499999,-0.00264978,0.001022726,0.001011418,0.003402571,0.002891717,3473.641,3435.33,0,98.89425,,
	08/01/2022 09:57:43.497,1.10651e+06,3374.51,74.00,5.00,0.001059907,3.500005,0.00370968,0.0009934189,3.150296E-09,0.003305221,7.875734E-09,3374.059,0.0107,0,0.0003171165,,
	08/01/2022 16:24:26.559,1.12971e+06,3284.95,77.00,6.00,-0.001059956,2.499993,-0.00264988,0.000976353,0.0009670567,0.003248147,0.002766912,3316.314,3284.536,0,99.04786,,
	08/01/2022 22:46:10.298,1.15261e+06,3260.36,81.00,5.00,0.001060165,3.500007,0.00371058,0.0009597579,2.709017E-09,0.003191862,6.772591E-09,3259.935,0.0092,0,0.0002822605,,
	08/02/2022 05:00:46.922,1.17509e+06,3171.9,84.00,6.00,-0.001059942,2.499993,-0.00264985,0.0009435014,0.0009337733,0.003137421,0.002674323,3204.653,3171.472,0,98.96895,,
	08/02/2022 11:06:20.604,1.19702e+06,3076.2,88.00,5.00,0.001060025,3.500003,0.00371009,0.0009056149,2.002117E-09,0.003013491,5.005288E-09,3075.818,0.0068,0,0.0002210782,,
	08/02/2022 16:58:31.974,1.21816e+06,2983.7,91.00,6.00,-0.001059873,2.49998,-0.00264966,0.0008869611,0.0008783239,0.002952185,0.002510938,3012.277,2983.327,0,99.0262,,
	08/02/2022 22:44:10.154,1.23889e+06,2949.83,95.00,5.00,0.001059889,3.500005,0.00370962,0.0008683832,1.766855E-09,0.002890171,4.417288E-09,2949.445,0.006,0,0.0002034649,,
	08/03/2022 04:22:30.722,1.25919e+06,2866.74,98.00,6.00,-0.001059928,2.499976,-0.00264979,0.0008508553,0.0008438964,0.002832293,0.002412332,2889.795,2866.34,0,99.18214,,
	08/03/2022 09:54:28.245,1.27911e+06,2832.07,102.00,5.00,0.001059982,3.500005,0.00370994,0.0008337531,1.796028E-09,0.002775425,4.489944E-09,2831.693,0.0061,0,0.0002154149,,
	08/03/2022 15:20:53.757,1.2987e+06,2776.45,105.00,6.00,-0.001059925,2.499995,-0.00264981,0.0008246145,0.0008173469,0.002744702,0.002337645,2800.838,2776.123,0,99.11868,,
	08/03/2022 20:41:19.378,1.31792e+06,2726.08,109.00,5.00,0.001059993,3.500003,0.00370998,0.000802545,2.70927E-09,0.002672118,6.773215E-09,2725.725,0.0092,0,0.0003375849,,
	08/04/2022 01:57:10.231,1.33687e+06,2694.42,112.00,6.00,-0.0010599,2.499991,-0.00264974,0.0008001369,0.0007931973,0.00266332,0.002268699,2717.741,2694.072,0,99.13269,,
	08/04/2022 07:07:19.525,1.35548e+06,2635.66,116.00,5.00,0.001059973,3.50002,0.00370993,0.0007759021,1.619279E-09,0.002583575,4.048113E-09,2635.276,0.0055,0,0.0002086964,,
	08/04/2022 12:10:55.850,1.3737e+06,2585.39,119.00,6.00,-0.001059898,2.499997,-0.00264974,0.0007672178,0.0007611117,0.002554647,0.002175567,2605.831,2585.036,0,99.20412,,
	08/04/2022 17:11:36.646,1.39174e+06,2567.71,123.00,5.00,0.001059906,3.500007,0.00370968,0.0007559021,3.032425E-09,0.002516813,7.58125E-09,2567.344,0.0103,0,0.0004011664,,
	08/04/2022 22:07:51.227,1.40952e+06,2513.31,126.00,6.00,-0.001059886,2.499995,-0.00264971,0.0007472791,0.0007398758,0.002488016,0.002114818,2538.121,2512.974,0,99.0093,,
	08/05/2022 02:58:35.736,1.42696e+06,2474.96,130.00,5.00,0.001059975,3.500003,0.00370992,0.0007285978,1.766396E-09,0.002426441,4.415813E-09,2474.624,0.006,0,0.0002424378,,
	08/05/2022 07:44:11.031,1.44409e+06,2432.25,133.00,6.00,-0.001059882,2.49999,-0.00264969,0.0007205863,0.0007159882,0.002399772,0.002045217,2447.351,2431.906,0,99.3619,,
	08/05/2022 12:26:35.548,1.46104e+06,2416.15,137.00,5.00,0.001059923,3.500001,0.00370973,0.000711255,3.445018E-09,0.00236866,8.612226E-09,2415.821,0.0101,0,0.0004843577,,
	08/05/2022 17:07:16.957,1.47788e+06,2393.58,140.00,6.00,-0.001059914,2.499991,-0.00264978,0.0007106685,0.000704633,0.002366032,0.002014527,2413.828,2393.26,0,99.15073,,
	08/05/2022 21:45:43.026,1.49459e+06,2376.97,144.00,5.00,0.001059898,3.50002,0.00370966,0.0006997235,2.355761E-09,0.002329566,5.888894E-09,2376.62,0.007999999,0,0.0003366703,,
	08/06/2022 02:19:19.570,1.511e+06,2320.67,147.00,6.00,-0.001059907,2.499993,-0.00264976,0.0006886271,0.0006831392,0.002293008,0.001951698,2338.883,2320.334,0,99.20306,,
	08/06/2022 06:47:45.125,1.52711e+06,2287.92,151.00,5.00,0.001059968,3.500012,0.0037099,0.0006735424,2.20832E-09,0.002243269,5.520688E-09,2287.604,0.0075,0,0.0003278664,,
	08/06/2022 11:11:26.577,1.54293e+06,2243.04,154.00,6.00,-0.00105991,2.499999,-0.00264977,0.0006651859,0.0006602874,0.002215757,0.001885157,2259.194,2242.727,0,99.2636,,
	08/06/2022 15:33:08.598,1.55863e+06,2250.93,158.00,5.00,0.001059876,3.500007,0.00370957,0.0006626212,2.944348E-09,0.002206564,7.36159E-09,2250.633,0.01,0,0.0004443485,,
	08/06/2022 19:54:21.192,1.57431e+06,2224,161.00,6.00,-0.001059914,2.499999,-0.00264978,0.0006595443,0.0006547052,0.00219597,0.001870839,2240.178,2223.701,0,99.2663,,
	08/07/2022 00:12:11.700,1.58978e+06,2196.68,165.00,5.00,0.00105991,3.500007,0.00370969,0.0006466577,4.092786E-09,0.002153487,1.023192E-08,2196.345,0.0139,0,0.0006329138,,
	08/07/2022 04:25:15.501,1.60496e+06,2148.39,168.00,6.00,-0.001059875,2.499995,-0.00264968,0.0006377471,0.0006324249,0.002124177,0.001805358,2166.019,2148.062,0,99.16547,,
	08/07/2022 08:34:38.873,1.61992e+06,2127.33,172.00,5.00,0.001059976,3.500012,0.00370993,0.0006262703,3.150133E-09,0.002086276,7.874969E-09,2127.019,0.0107,0,0.0005029989,,
	08/07/2022 12:40:27.959,1.63467e+06,2095.58,175.00,6.00,-0.001059921,2.499991,-0.00264979,0.0006203106,0.0006168892,0.002066548,0.001760241,2106.848,2095.239,0,99.44844,,
	08/07/2022 16:45:54.920,1.6494e+06,2106.53,179.00,5.00,0.001059926,3.500005,0.00370975,0.0006200839,2.002384E-09,0.002065177,5.005815E-09,2106.161,0.0058,0,0.0003229214,,
	08/07/2022 20:49:14.657,1.664e+06,2068.37,182.00,6.00,-0.001059917,2.499991,-0.00264978,0.0006138626,0.0006088454,0.002044554,0.001738154,2084.947,2067.99,0,99.18269,,
	08/08/2022 00:49:38.923,1.67842e+06,2054.22,186.00,5.00,0.001059943,3.500003,0.0037098,0.0006047253,2.001842E-09,0.002014272,5.004423E-09,2053.874,0.0058,0,0.0003310333,,
	08/08/2022 04:46:21.337,1.69263e+06,2011.5,189.00,6.00,-0.00105985,2.499991,-0.00264962,0.0005965054,0.0005921058,0.001987208,0.001688971,2025.917,2011.135,0,99.26244,,
	08/08/2022 08:40:03.720,1.70665e+06,1999.44,193.00,5.00,0.001059995,3.500009,0.00370999,0.000588627,2.001839E-09,0.001961263,5.004786E-09,1999.063,0.0057,0,0.0003400862,,
	08/08/2022 12:31:24.036,1.72053e+06,1977.13,196.00,6.00,-0.001059863,2.499984,-0.00264964,0.0005851865,0.0005820041,0.0019496,0.00166026,1987.507,1976.847,0,99.45618,,
	08/08/2022 16:22:41.539,1.73441e+06,1979.58,200.00,5.00,0.001059972,3.500007,0.00370991,0.0005827508,2.325868E-09,0.001941214,5.814038E-09,1979.249,0.007,0,0.0003991188,,
	08/08/2022 16:55:28.937,1.73637e+06,1967.37,200.00,6.00,-0.001059896,2.499986,-0.00264973,0.0005827526,0.0005791146,0.001941221,0.001652381,1979.255,1967.016,0,99.37572,,