Folder: ML-for-Si-Battery-Electrolyte/Cell-test-data/SiMP-LFP-LSCE

Note: README.md
# ML-for-Si-Battery-Electrolyte

File: JB0_SiMP-LFP-LSCE_03C_Channel_84_StatisticByCycle.CSV
Date_Time                    ,Test Time (s),Step Time (s),Cycle Index,Step Index,Current (A),Voltage (V),Power (W),Charge Capacity (Ah),Discharge Capacity (Ah),Charge Energy (Wh),Discharge Energy (Wh),Charge Time (s),Discharge Time (s),V_Max_On_Cycle (V),Coulombic Efficiency (%),mAh/g
	07/21/2022 16:55:51.762,181304,63187.7,1,3,-0.0001589973,2.499929,-0.000397482,0.003308329,0.002790356,0.01096983,0.00828709,74906.11,63179.71,0,84.34338,,
	07/24/2022 22:25:38.300,460290,7651.36,5,6,-0.001060021,2.499987,-0.00265004,0.002298909,0.002252587,0.00749506,0.006519358,7807.108,7650.385,0,97.98507,,
	07/25/2022 14:54:14.195,519605.962,7174.03,9,6,-0.001060031,2.499985,-0.00265006,0.002151781,0.002112122,0.007015268,0.006109862,7307.301,7173.08,0,98.15691,,
	07/26/2022 06:23:25.609,575357.376,6739.197,13,6,-0.001059909,2.499987,-0.00264976,0.002021399,0.001984002,0.006592932,0.005741762,6864.563,6738.332,0,98.14994,,
	07/26/2022 20:58:52.905,627885,6371.99,17,6,-0.00106003,2.499966,-0.00265004,0.001912025,0.001875964,0.006237763,0.005433936,6493.198,6371.207,0,98.11397,,
	07/27/2022 10:46:45.802,677558,6038.402,21,6,-0.001060016,2.5,-0.00265004,0.001806912,0.001777726,0.005899796,0.005152031,6136.178,6037.642,0,98.38474,,
	07/27/2022 23:54:05.917,724798,5733.83,25,6,-0.001060019,2.499933,-0.00264998,0.001715257,0.001688057,0.005603433,0.004895465,5824.916,5733.128,0,98.41427,,
	07/28/2022 12:21:30.557,769642,5462.24,29,6,-0.001059978,2.499981,-0.00264992,0.001632633,0.00160804,0.005336082,0.00466611,5544.639,5461.394,0,98.49367,,
	07/29/2022 00:15:12.078,812464,5210,33,6,-0.001059988,2.499985,-0.00264995,0.001557223,0.001533847,0.005091465,0.004453825,5288.239,5209.304,0,98.49887,,
	07/29/2022 11:34:26.727,853218,4970.78,37,6,-0.001060055,2.499931,-0.00265006,0.001484509,0.001463398,0.00485592,0.004250754,5041.188,4970.069,0,98.57789,,
	07/29/2022 22:27:00.054,892372,4770.06,41,6,-0.00106007,2.499952,-0.00265012,0.001426336,0.001404337,0.004665481,0.004083305,4843.891,4769.444,0,98.45764,,
	07/30/2022 08:47:58.813,929631,4548.08,45,6,-0.001059934,2.499994,-0.00264983,0.001357282,0.001338972,0.004442722,0.003893212,4609.37,4547.452,0,98.65098,,
	07/30/2022 18:44:18.476,965410,4388.67,49,6,-0.001060022,2.499996,-0.00265005,0.00131057,0.001292097,0.004288892,0.003761507,4450.858,4388.111,0,98.59042,,
	07/31/2022 04:14:44.056,999636,4176.85,53,6,-0.001060017,2.49996,-0.00265,0.00124677,0.001229667,0.004083295,0.00357787,4233.949,4176.255,0,98.62823,,
	07/31/2022 13:21:27.234,1.03244e+06,4008.61,57,6,-0.001060082,2.5,-0.002650205,0.001196824,0.001180187,0.003920808,0.003434853,4064.419,4008.11,0,98.60987,,
	07/31/2022 22:08:02.300,1064034.067,3876.72,61,6,-0.001059967,2.499949,-0.00264986,0.001156099,0.001141347,0.003787409,0.003324174,3926.171,3876.196,0,98.72398,,
	08/01/2022 06:34:23.283,1.09442e+06,3724.35,65,6,-0.001060015,2.499973,-0.00265001,0.001108308,0.001096467,0.003632627,0.003192446,3763.887,3723.831,0,98.93169,,
	08/01/2022 14:42:49.437,1.12372e+06,3601.32,69,6,-0.001060066,2.499966,-0.00265013,0.001071765,0.001060331,0.003513134,0.003089074,3639.883,3600.893,0,98.93324,,
	08/01/2022 22:38:44.174,1152275.941,3516.39,73,6,-0.001060091,2.499996,-0.00265022,0.001046162,0.001035301,0.003427934,0.003019494,3553.008,3515.901,0,98.96184,,
	08/02/2022 06:21:46.950,1.18006e+06,3414.2,77,6,-0.00106007,2.499969,-0.00265014,0.001016077,0.001005222,0.003328975,0.00293298,3450.769,3413.748,0,98.93165,,
	08/02/2022 13:46:04.530,1.20672e+06,3249.34,81,6,-0.001060013,2.499975,-0.00265001,0.0009673347,0.0009566029,0.003172831,0.002786198,3285.045,3248.902,0,98.89058,,
	08/02/2022 20:53:26.618,1.23236e+06,3155.68,85,6,-0.001060011,2.499973,-0.00265,0.0009383263,0.0009290632,0.003077828,0.002706629,3186.458,3155.219,0,99.0128,,
	08/03/2022 03:48:31.076,1.25726e+06,3060.29,89,6,-0.00105995,2.499945,-0.00264982,0.0009096152,0.0009009424,0.002984481,0.002624095,3088.974,3059.876,0,99.04654,,
	08/03/2022 10:31:24.962,1.28144e+06,2976.67,93,6,-0.001059996,2.499962,-0.00264995,0.0008862821,0.000876338,0.002908417,0.002552697,3009.711,2976.274,0,98.878,,
	08/03/2022 17:05:17.527,1.30507e+06,2903.11,97,6,-0.001059962,2.499992,-0.0026499,0.0008641106,0.000854674,0.00283519,0.002490147,2934.522,2902.713,0,98.90794,,
	08/03/2022 23:27:51.390,1.32802e+06,2839.62,101,6,-0.001060019,2.499981,-0.00265003,0.0008425254,0.0008360131,0.002764986,0.002436172,2861.169,2839.147,0,99.22704,,
	08/04/2022 05:42:53.619,1.35053e+06,2760.91,105,6,-0.001059978,2.499872,-0.00264981,0.0008206814,0.0008128071,0.002693501,0.002367785,2787.027,2760.444,0,99.04051,,
	08/04/2022 11:46:56.124,1.37237e+06,2699.42,109,6,-0.001060016,2.49995,-0.00264999,0.0008017971,0.000794737,0.002631806,0.002315654,2722.809,2699.021,0,99.11947,,
	08/04/2022 17:44:09.712,1.3938e+06,2648.54,113,6,-0.001060006,2.499947,-0.00264996,0.0007859592,0.0007797497,0.002579537,0.002272167,2669.157,2648.127,0,99.20994,,
	08/04/2022 23:32:44.063,1.41472e+06,2574.09,117,6,-0.001060072,2.499998,-0.00265018,0.000764766,0.0007578043,0.002510617,0.002207259,2597.084,2573.627,0,99.08969,,
	08/05/2022 05:11:56.687,1.43507e+06,2513.44,121,6,-0.001060054,2.499989,-0.00265012,0.0007456903,0.000739996,0.002448588,0.002154743,2532.338,2513.12,0,99.23637,,
	08/05/2022 10:44:01.635,1.45499e+06,2461.91,125,6,-0.001059985,2.499868,-0.00264982,0.000730413,0.0007248306,0.002398658,0.002110184,2480.543,2461.576,0,99.23573,,
	08/05/2022 16:11:45.875,1.47466e+06,2438.96,129,6,-0.001060016,2.499964,-0.00265,0.0007237302,0.0007180818,0.002375912,0.002092469,2457.936,2438.659,0,99.21954,,
	08/05/2022 21:35:08.762,1.49406e+06,2396.53,133,6,-0.001060015,2.499907,-0.00264994,0.0007110501,0.0007055737,0.002334104,0.002055836,2414.879,2396.246,0,99.22982,,
	08/06/2022 02:50:30.261,1.51298e+06,2330.53,137,6,-0.001060055,2.499998,-0.00265014,0.000691536,0.0006861538,0.002270861,0.00199802,2348.526,2330.248,0,99.22171,,
	08/06/2022 07:57:49.612,1.53142e+06,2276.941,141,6,-0.001060082,2.5,-0.002650205,0.0006754571,0.0006703525,0.002218657,0.001951017,2293.884,2276.645,0,99.24429,,
	08/06/2022 12:58:33.565,1.54947e+06,2238.39,145,6,-0.001060075,2.499996,-0.00265018,0.0006629827,0.0006590149,0.002177957,0.001917961,2251.514,2238.086,0,99.40152,,
	08/06/2022 17:57:02.890,1.56737e+06,2224.89,149,6,-0.001060084,2.499891,-0.00265009,0.0006596358,0.0006550702,0.002166084,0.001907887,2240.284,2224.625,0,99.30786,,
	08/06/2022 22:51:15.018,1585026.785,2175.32,153,6,-0.001060022,2.499905,-0.00264995,0.0006459198,0.0006404412,0.002121361,0.001864485,2193.732,2175.052,0,99.15182,,
	08/07/2022 03:38:01.344,1.60223e+06,2125.12,157,6,-0.001060066,2.499977,-0.00265014,0.0006302039,0.0006256707,0.002070434,0.001820302,2140.278,2124.861,0,99.28066,,
	08/07/2022 08:18:54.019,1619085.786,2084.2,161,6,-0.001060107,2.499895,-0.00265016,0.0006183182,0.0006136417,0.002031759,0.001784723,2099.788,2083.946,0,99.24368,,
	08/07/2022 12:54:43.961,1.63564e+06,2054.24,165,6,-0.001059967,2.499977,-0.00264989,0.0006084248,0.0006048064,0.001999495,0.001759076,2066.147,2053.988,0,99.40528,,
	08/07/2022 17:28:39.247,1.65207e+06,2040.11,169,6,-0.001060003,2.499949,-0.00264995,0.0006048929,0.0006006417,0.001987213,0.001747759,2054.344,2039.847,0,99.29719,,
	08/07/2022 21:58:16.958,1.66825e+06,2002.372,173,6,-0.00105998,2.499935,-0.00264988,0.0005936833,0.0005895366,0.00195063,0.001714916,2016.199,2002.119,0,99.30153,,
	08/08/2022 02:22:56.811,1684128.578,1963.34,177,6,-0.00105998,2.499992,-0.00264994,0.0005814387,0.0005780255,0.001910841,0.001680559,1974.502,1963.062,0,99.41298,,
	08/08/2022 06:42:22.601,1.69969e+06,1926.76,181,6,-0.001059966,2.499983,-0.0026499,0.0005709827,0.0005671905,0.001876921,0.001648409,1938.956,1926.416,0,99.33585,,
	08/08/2022 10:58:10.832,1715042.599,1903.292,185,6,-0.001059952,2.499866,-0.00264974,0.0005634266,0.0005603213,0.001852209,0.001628339,1913.374,1902.916,0,99.44885,,
	08/08/2022 15:12:23.493,1.7303e+06,1896.31,189,6,-0.001059994,2.499969,-0.00264995,0.0005616039,0.0005582615,0.001845561,0.001623279,1907.144,1895.961,0,99.40485,,
	08/08/2022 19:24:11.678,1.7454e+06,1876.33,193,6,-0.001060008,2.49996,-0.00264998,0.0005561527,0.0005523959,0.001827583,0.001606343,1888.681,1876.017,0,99.32449,,
	08/08/2022 23:32:18.723,1760290.49,1839.11,197,6,-0.001060089,2.499975,-0.0026502,0.0005458946,0.0005413954,0.001794148,0.001573711,1853.815,1838.755,0,99.17582,,
	08/09/2022 02:35:19.247,1.77127e+06,1816.26,200,6,-0.001059972,2.5,-0.00264993,0.0005380292,0.0005346704,0.001768588,0.001553613,1827.138,1815.921,0,99.37572,,

File: JB0_SiMP-LFP-LSCE_03C_Channel_84_StatisticByStep.CSV
Date_Time                    ,Test Time (s),Step Time (s),Cycle Index,Step Index,Current (A),Voltage (V),Power (W),Charge Capacity (Ah),Discharge Capacity (Ah),Charge Energy (Wh),Discharge Energy (Wh),Charge Time (s),Discharge Time (s),V_Max_On_Cycle (V),Coulombic Efficiency (%),mAh/g
	07/20/2022 02:34:08.234,43200,43200,1.00,1.00,0,0.2690849,0,0,0,0,0,0,0,0,0,,
	07/24/2022 15:56:29.640,436941,8377.7,4.00,5.00,0.001060087,3.50001,0.00371032,0.002466608,4.814408E-10,0.008061511,1.203835E-09,8376.617,0.0099,0,1.951834E-05,,
	07/25/2022 06:47:41.254,490413,7398.93,7.00,6.00,-0.001059964,2.499968,-0.00264988,0.002220187,0.002178272,0.007237515,0.006300616,7539.785,7397.98,0,98.11212,,
	07/25/2022 20:50:27.741,540980,7086.71,11.00,5.00,0.001060147,3.50008,0.0037106,0.002086544,1.707885E-09,0.006802829,4.269817E-09,7085.751,0.0058,0,8.18523E-05,,
	07/26/2022 10:06:40.380,588752,6637.36,14.00,6.00,-0.001059936,2.499971,-0.00264981,0.00198948,0.001954032,0.00648982,0.005655443,6756.493,6636.504,0,98.21825,,
	07/26/2022 22:45:16.982,634269,6384.05,18.00,5.00,0.001060096,3.500015,0.00371035,0.001879661,3.239071E-09,0.00613487,8.098266E-09,6383.238,0.01,0,0.0001723221,,
	07/27/2022 10:46:45.802,677558,6038.4,21.00,6.00,-0.001060016,2.5,-0.00265004,0.001806912,0.001777726,0.005899796,0.005152031,6136.178,6037.642,0,98.38474,,
	07/27/2022 22:18:32.061,719064,5825.69,25.00,5.00,0.001060128,3.500017,0.00371047,0.001715256,1.531018E-09,0.005603428,3.827805E-09,5824.912,0.0052,0,8.925886E-05,,
	07/28/2022 09:18:02.603,758634,5528.4,28.00,6.00,-0.001060022,2.499969,-0.00265002,0.001653142,0.001627453,0.005402322,0.004721718,5614.623,5527.354,0,98.44606,,
	07/28/2022 19:52:15.291,796687,5369.97,32.00,5.00,0.001060138,3.50001,0.00371049,0.001581087,1.825843E-09,0.005167802,4.565338E-09,5369.288,0.0062,0,0.0001154803,,
	07/29/2022 05:58:47.251,833079,5087.03,35.00,6.00,-0.001060021,2.499941,-0.00264999,0.001519032,0.001497611,0.004967709,0.004349407,5158.511,5086.315,0,98.58984,,
	07/29/2022 15:42:16.369,868088,4961.27,39.00,5.00,0.001060041,3.500006,0.00371015,0.001460638,3.798565E-09,0.004776718,9.497114E-09,4960.599,0.0129,0,0.000260062,,
	07/30/2022 01:04:59.917,901852,4706.03,42.00,6.00,-0.001060044,2.499941,-0.00265005,0.001405535,0.001385489,0.004598811,0.004027741,4773.167,4705.317,0,98.5738,,
	07/30/2022 10:03:57.953,934190,4559.11,46.00,5.00,0.001060167,3.500008,0.00371059,0.001342357,2.796669E-09,0.004394313,6.993681E-09,4558.489,0.0095,0,0.0002083402,,
	07/30/2022 18:44:18.476,965410,4388.67,49.00,6.00,-0.001060022,2.499996,-0.00265005,0.00131057,0.001292097,0.004288892,0.003761507,4450.858,4388.111,0,98.59042,,
	07/31/2022 03:05:07.181,995459,4234.55,53.00,5.00,0.001060154,3.500088,0.00371063,0.001246767,2.296856E-09,0.004083287,5.743375E-09,4233.942,0.0078,0,0.0001842249,,
	07/31/2022 11:06:53.594,1.02437e+06,4052.33,56.00,6.00,-0.001059919,2.499979,-0.00264978,0.001208973,0.001192987,0.003960456,0.003471839,4105.713,4051.76,0,98.6777,,
	07/31/2022 18:52:49.487,1.05232e+06,3960.42,60.00,5.00,0.001059998,3.500029,0.00371002,0.001166024,3.209775E-09,0.00382024,8.025675E-09,3959.882,0.0109,0,0.0002752752,,
	08/01/2022 02:23:41.671,1.07937e+06,3788.68,63.00,6.00,-0.00106007,2.499985,-0.00265016,0.001129762,0.00111541,0.003702546,0.003247496,3836.635,3788.186,0,98.72964,,
	08/01/2022 09:39:40.712,1.10553e+06,3697.13,67.00,5.00,0.001060027,3.500013,0.00371011,0.00108854,2.178568E-09,0.003568122,5.446776E-09,3696.636,0.0074,0,0.0002001367,,
	08/01/2022 16:43:08.618,1.13094e+06,3589.16,70.00,6.00,-0.001060133,2.49996,-0.00265029,0.001068702,0.001056703,0.003502248,0.003080238,3629.518,3588.66,0,98.87729,,
	08/01/2022 23:37:38.485,1.15581e+06,3534.28,74.00,5.00,0.001060052,3.500017,0.0037102,0.001040499,2.090969E-09,0.003409008,5.227773E-09,3533.78,0.0071,0,0.0002009582,,
	08/02/2022 06:21:46.950,1.18006e+06,3414.2,77.00,6.00,-0.00106007,2.499969,-0.00265014,0.001016077,0.001005222,0.003328975,0.00293298,3450.769,3413.748,0,98.93165,,
	08/02/2022 12:51:55.169,1.20347e+06,3285.47,81.00,5.00,0.001060205,3.500029,0.00371075,0.0009673325,2.296353E-09,0.003172823,5.741181E-09,3285.037,0.0078,0,0.0002373903,,
	08/02/2022 19:07:44.000,1.22602e+06,3174.88,84.00,6.00,-0.001060045,2.499992,-0.0026501,0.0009456163,0.0009347165,0.003102045,0.002722754,3211.463,3174.469,0,98.84733,,
	08/03/2022 01:14:40.911,1.24803e+06,3111.33,88.00,5.00,0.001060129,3.500116,0.00371057,0.0009160753,2.767601E-09,0.003005267,6.919049E-09,3110.907,0.0094,0,0.000302115,,
	08/03/2022 07:11:13.128,1.26942e+06,3014.36,91.00,6.00,-0.001059978,2.499956,-0.0026499,0.0008959963,0.0008874044,0.002940077,0.002584636,3042.739,3013.984,0,99.04108,,
	08/03/2022 13:00:22.128,1.29037e+06,2982.51,95.00,5.00,0.001060032,3.500002,0.00371011,0.0008780878,2.974356E-09,0.002880788,7.435719E-09,2982.098,0.0092,0,0.000338731,,
	08/03/2022 18:41:44.203,1.31086e+06,2881.05,98.00,6.00,-0.001059953,2.499981,-0.00264986,0.0008554785,0.0008481656,0.002807394,0.00247053,2905.178,2880.569,0,99.14516,,
	08/04/2022 00:15:30.314,1.33088e+06,2858.89,102.00,5.00,0.001060055,3.500019,0.00371021,0.0008416679,2.443916E-09,0.002761566,6.107917E-09,2858.269,0.0083,0,0.0002903658,,
	08/04/2022 05:42:53.619,1.35053e+06,2760.91,105.00,6.00,-0.001059978,2.499872,-0.00264981,0.0008206814,0.0008128071,0.002693501,0.002367785,2787.027,2760.444,0,99.04051,,
	08/04/2022 11:01:56.679,1.36967e+06,2723.17,109.00,5.00,0.0010601,3.500006,0.00371036,0.0008017949,2.73856E-09,0.002631798,6.846887E-09,2722.802,0.0093,0,0.0003415538,,
	08/04/2022 16:15:31.529,1.38848e+06,2656.18,112.00,6.00,-0.00106004,2.499987,-0.00265009,0.0007894192,0.0007819551,0.002591104,0.00227828,2680.898,2655.682,0,99.05447,,
	08/04/2022 21:23:18.904,1.40695e+06,2616.83,116.00,5.00,0.001060032,3.500019,0.00371013,0.0007704494,1.913803E-09,0.002528939,4.784686E-09,2616.387,0.0065,0,0.0002484009,,
	08/05/2022 02:23:19.869,1.42495e+06,2536.55,119.00,6.00,-0.00105995,2.499977,-0.00264985,0.0007546697,0.0007467491,0.002478022,0.002174489,2562.774,2536.176,0,98.95045,,
	08/05/2022 07:17:24.048,1.4426e+06,2507.06,123.00,5.00,0.001060103,3.500011,0.00371037,0.0007381481,2.739047E-09,0.002423991,6.84797E-09,2506.733,0.0093,0,0.0003710701,,
	08/05/2022 12:06:07.337,1.45992e+06,2454.73,126.00,6.00,-0.001060041,2.499971,-0.00265007,0.0007274895,0.0007227505,0.002389111,0.002104526,2470.609,2454.448,0,99.34858,,
	08/05/2022 16:52:37.209,1.47711e+06,2451.3,130.00,5.00,0.001060034,3.500067,0.00371019,0.0007216968,3.974674E-09,0.002369096,9.937192E-09,2450.98,0.0109,0,0.0005507402,,
	08/05/2022 21:35:08.762,1.49406e+06,2396.53,133.00,6.00,-0.001060015,2.499907,-0.00264994,0.0007110501,0.0007055737,0.002334104,0.002055836,2414.879,2396.246,0,99.22982,,
	08/06/2022 02:11:39.702,1.51065e+06,2348.82,137.00,5.00,0.001060057,3.500017,0.00371022,0.0006915347,2.472597E-09,0.002270857,6.180267E-09,2348.522,0.0084,0,0.0003575522,,
	08/06/2022 06:41:38.437,1.52685e+06,2288.73,140.00,6.00,-0.001060001,2.499985,-0.00264999,0.0006795656,0.0006738463,0.002232026,0.001961462,2307.747,2288.444,0,99.15839,,
	08/06/2022 11:06:22.518,1.54273e+06,2255.07,144.00,5.00,0.00106008,3.500023,0.0037103,0.0006639546,3.062422E-09,0.002181284,7.655825E-09,2254.776,0.0104,0,0.0004612397,,
	08/06/2022 15:27:57.690,1.55843e+06,2233.78,147.00,6.00,-0.001060005,2.49999,-0.00265,0.0006612788,0.0006577114,0.00217183,0.001915189,2245.827,2233.496,0,99.46052,,
	08/06/2022 19:48:16.091,1.57405e+06,2222.75,151.00,5.00,0.001060011,3.500027,0.00371007,0.0006543996,3.621336E-09,0.00214889,9.052846E-09,2222.448,0.0123,0,0.0005533831,,
	08/07/2022 00:03:36.299,1.58937e+06,2162.79,154.00,6.00,-0.001059982,2.499979,-0.00264993,0.0006413522,0.0006367763,0.002106605,0.001853368,2178.167,2162.518,0,99.28652,,
	08/07/2022 04:13:31.191,1.60436e+06,2129.82,158.00,5.00,0.001060041,3.500078,0.00371023,0.0006270682,3.327953E-09,0.002060264,8.317032E-09,2129.546,0.0113,0,0.0005307163,,
	08/07/2022 08:18:54.019,1.61909e+06,2084.2,161.00,6.00,-0.001060107,2.499895,-0.00265016,0.0006183182,0.0006136417,0.002031759,0.001784723,2099.788,2083.946,0,99.24368,,
	08/07/2022 12:20:29.695,1.63358e+06,2066.4,165.00,5.00,0.001060066,3.500015,0.00371025,0.0006084228,4.299248E-09,0.001999488,1.074835E-08,2066.14,0.0146,0,0.0007066218,,
	08/07/2022 16:20:24.478,1.64798e+06,2046.49,168.00,6.00,-0.001060108,2.499998,-0.00265027,0.0006063996,0.0006025418,0.001992204,0.001753261,2059.391,2046.237,0,99.36382,,
	08/07/2022 20:17:47.072,1.66222e+06,2022.99,172.00,5.00,0.00106007,3.500048,0.0037103,0.0005956116,2.855683E-09,0.00195693,7.138619E-09,2022.743,0.009699999,0,0.0004794539,,
	08/08/2022 00:11:19.851,1.67623e+06,1984.27,175.00,6.00,-0.001059983,2.499956,-0.00264991,0.0005882682,0.0005841823,0.001933072,0.001698875,1997.774,1984.007,0,99.30544,,
	08/08/2022 04:00:53.396,1.69001e+06,1957.03,179.00,5.00,0.001060076,3.500025,0.00371029,0.000576179,3.297918E-09,0.001893814,8.246694E-09,1956.648,0.0112,0,0.0005723773,,
	08/08/2022 07:46:42.519,1.70355e+06,1926.03,182.00,6.00,-0.001059934,2.499992,-0.00264983,0.000569329,0.0005669989,0.001871612,0.001647888,1933.454,1925.661,0,99.59074,,
	08/08/2022 11:30:04.811,1.71696e+06,1913.95,186.00,5.00,0.00106008,3.500025,0.00371031,0.0005635139,2.561048E-09,0.001852356,6.402435E-09,1913.646,0.0087,0,0.0004544781,,
	08/08/2022 15:12:23.493,1.7303e+06,1896.31,189.00,6.00,-0.001059994,2.499969,-0.00264995,0.0005616039,0.0005582615,0.001845561,0.001623279,1907.144,1895.961,0,99.40485,,
	08/08/2022 18:52:55.329,1.74353e+06,1889.01,193.00,5.00,0.001060055,3.500027,0.00371022,0.000556151,2.32613E-09,0.001827577,5.815119E-09,1888.675,0.0069,0,0.0004182551,,
	08/08/2022 22:30:45.398,1.7566e+06,1850.75,196.00,6.00,-0.001060054,2.5,-0.002650135,0.0005479475,0.0005448337,0.001800784,0.001583949,1860.809,1850.346,0,99.43172,,
	08/09/2022 02:05:02.968,1.76945e+06,1827.47,200.00,5.00,0.001060163,3.500084,0.00371066,0.0005380274,2.208948E-09,0.001768582,5.52226E-09,1827.133,0.0075,0,0.0004105642,,
	08/09/2022 02:35:19.247,1.77127e+06,1816.26,200.00,6.00,-0.001059972,2.5,-0.00264993,0.0005380292,0.0005346704,0.001768588,0.001553613,1827.138,1815.921,0,99.37572,,