Folder: ML-for-Si-Battery-Electrolyte/Cell-test-data/SiMP-LFP-PFOF3

Note: README.md
# ML-for-Si-Battery-Electrolyte

File: JB3_SiMP-LFP-PFOF3_03C_Channel_87_StatisticByCycle.CSV
Date_Time                    ,Test Time (s),Step Time (s),Cycle Index,Step Index,Current (A),Voltage (V),Power (W),Charge Capacity (Ah),Discharge Capacity (Ah),Charge Energy (Wh),Discharge Energy (Wh),Charge Time (s),Discharge Time (s),V_Max_On_Cycle (V),Coulombic Efficiency (%),mAh/g
	07/21/2022 16:24:43.016,179388,61900,1,3,-0.0001590118,2.499978,-0.000397526,0.003280682,0.002733512,0.01086174,0.008117339,74278,61892.22,0,83.32146,,
	07/24/2022 20:12:10.245,452235,7595.05,5,6,-0.001060073,2.49998,-0.00265016,0.0022726,0.002236188,0.007390921,0.006473386,7717.732,7594.134,0,98.3978,,
	07/25/2022 12:40:18.141,511523,7236,9,6,-0.001060092,2.499969,-0.0026502,0.002161124,0.00213047,0.007024188,0.006156409,7340.104,7235.047,0,98.58155,,
	07/26/2022 04:27:15.480,568340,6927.25,13,6,-0.001060139,2.499972,-0.00265032,0.002069396,0.002039624,0.006725224,0.005892542,7028.477,6926.37,0,98.5613,,
	07/26/2022 19:33:32.797,622718,6653.58,17,6,-0.001060165,2.499953,-0.00265036,0.00198855,0.001959043,0.006461408,0.005663302,6753.006,6652.71,0,98.51616,,
	07/27/2022 10:01:29.978,674795,6363.73,21,6,-0.001060105,2.499928,-0.00265019,0.001898697,0.001873685,0.006172771,0.005415999,6448.737,6362.909,0,98.68267,,
	07/27/2022 23:54:49.280,724794.099,6098.437,25,6,-0.001060066,2.499932,-0.00265009,0.001820925,0.001795611,0.00592187,0.005192814,6183.755,6097.724,0,98.60981,,
	07/28/2022 13:12:16.066,772641,5849.29,29,6,-0.001060133,2.499991,-0.00265032,0.001745304,0.001722165,0.005678214,0.004981693,5928.076,5848.326,0,98.67426,,
	07/29/2022 01:58:27.285,818612,5609.798,33,6,-0.001060069,2.499984,-0.00265016,0.001674517,0.001651676,0.005449292,0.004781019,5687.299,5609.018,0,98.63599,,
	07/29/2022 14:12:06.209,862631,5382.74,37,6,-0.001059848,2.499953,-0.00264957,0.001605072,0.001584768,0.005225257,0.004590355,5451.163,5381.993,0,98.73497,,
	07/30/2022 01:58:13.807,904999,5154.47,41,6,-0.001060156,2.499991,-0.00265038,0.001539176,0.001517652,0.005011983,0.004397723,5226.776,5153.747,0,98.60157,,
	07/30/2022 13:12:17.032,945442,4944.18,45,6,-0.001060159,2.499991,-0.00265039,0.001474511,0.001455761,0.004803427,0.004219943,5008.249,4943.542,0,98.72842,,
	07/31/2022 00:01:06.714,984372,4745.74,49,6,-0.001060151,2.499986,-0.00265036,0.001415491,0.001397326,0.00461241,0.004052892,4806.771,4745.11,0,98.71669,,
	07/31/2022 10:21:45.234,1.02161e+06,4548.53,53,6,-0.001060083,2.499955,-0.00265016,0.001358622,0.0013392,0.004428361,0.003885735,4614.59,4547.906,0,98.57044,,
	07/31/2022 20:17:53.956,1.05738e+06,4386.6,57,6,-0.001059866,2.499995,-0.00264966,0.001307056,0.001291458,0.004261164,0.003749832,4438.642,4386.043,0,98.80663,,
	08/01/2022 05:51:18.404,1.09178e+06,4204.21,61,6,-0.001060101,2.49994,-0.00265019,0.001254949,0.001237894,0.004092709,0.003594303,4261.639,4203.673,0,98.64098,,
	08/01/2022 15:03:21.940,1.12491e+06,4068.91,65,6,-0.001059872,2.499927,-0.0026496,0.001211915,0.001197816,0.003952802,0.003480571,4115.711,4068.42,0,98.83668,,
	08/01/2022 23:59:57.596,1.1571e+06,3954.23,69,6,-0.001059873,2.499993,-0.00264968,0.001179366,0.001164031,0.003845036,0.003386304,4005.4,3953.723,0,98.69968,,
	08/02/2022 08:39:36.684,1.18828e+06,3819.8,73,6,-0.001060094,2.499965,-0.0026502,0.001139842,0.001124526,0.003716052,0.003272462,3871.14,3819.306,0,98.65629,,
	08/02/2022 16:55:15.969,1.21802e+06,3639.574,77,6,-0.001060052,2.499961,-0.00265009,0.001085396,0.001071586,0.003542555,0.003114163,3686.652,3639.072,0,98.72766,,
	08/03/2022 00:54:29.964,1.24677e+06,3531.75,81,6,-0.001060119,2.499951,-0.00265025,0.00105175,0.001039882,0.003432798,0.00302287,3571.577,3531.276,0,98.87155,,
	08/03/2022 08:38:26.369,1.27461e+06,3424.56,85,6,-0.001060073,2.499991,-0.00265017,0.001018094,0.001008293,0.003323655,0.002930687,3457.774,3424.105,0,99.03722,,
	08/03/2022 16:10:01.719,1.30171e+06,3334.78,89,6,-0.001060126,2.499907,-0.00265022,0.0009935596,0.0009818494,0.003243176,0.002855542,3374.124,3334.361,0,98.82139,,
	08/03/2022 23:28:07.448,1.32799e+06,3241.963,93,6,-0.001060111,2.499988,-0.00265026,0.0009633054,0.0009545386,0.00314547,0.002776071,3271.246,3241.465,0,99.08992,,
	08/04/2022 06:35:49.968,1.35365e+06,3148.305,97,6,-0.001060103,2.499999,-0.00265026,0.0009367311,0.0009269104,0.003058959,0.002694774,3181.11,3147.69,0,98.9516,,
	08/04/2022 13:31:42.424,1378607.243,3083.07,101,6,-0.00106013,2.499982,-0.00265031,0.0009168709,0.0009077436,0.002993792,0.002640207,3113.597,3082.545,0,99.00452,,
	08/04/2022 20:18:43.348,1.40303e+06,3007.93,105,6,-0.001059858,2.49998,-0.00264962,0.0008952907,0.0008855909,0.00292349,0.002575675,3040.299,3007.444,0,98.91657,,
	08/05/2022 02:54:48.614,1.42679e+06,2923.92,109,6,-0.001060128,2.49994,-0.00265026,0.0008702137,0.0008608845,0.002842686,0.002502471,2955.52,2923.46,0,98.92794,,
	08/05/2022 09:20:53.333,1.44996e+06,2857.29,113,6,-0.001060147,2.499965,-0.00265033,0.0008489322,0.000841273,0.002773452,0.002445342,2882.865,2856.934,0,99.09779,,
	08/05/2022 15:40:21.712,1.47273e+06,2823.37,117,6,-0.001059969,2.499993,-0.00264992,0.0008388628,0.0008311716,0.002739501,0.00241803,2848.978,2823.027,0,99.08314,,
	08/05/2022 21:54:32.855,1.49518e+06,2771.868,121,6,-0.001059903,2.499999,-0.00264976,0.0008229953,0.000815986,0.002687412,0.002373964,2795.066,2771.557,0,99.14832,,
	08/06/2022 03:59:30.742,1.51708e+06,2700.35,125,6,-0.001059856,2.499978,-0.00264962,0.0008005963,0.0007950187,0.002615181,0.002311358,2718.771,2700.032,0,99.30331,,
	08/06/2022 09:55:19.801,1.53842e+06,2634.873,129,6,-0.001060128,2.499995,-0.00265031,0.0007817721,0.0007758089,0.002554446,0.00225431,2654.779,2634.551,0,99.23722,,
	08/06/2022 15:45:18.565,1.55942e+06,2611.388,133,6,-0.001059917,2.499967,-0.00264976,0.0007742805,0.0007687258,0.002529203,0.002235572,2629.572,2611.045,0,99.2826,,
	08/06/2022 21:31:34.868,1580199.687,2566.63,137,6,-0.001059861,2.499919,-0.00264957,0.0007618049,0.0007555552,0.002488101,0.002197264,2587.17,2566.313,0,99.17962,,
	08/07/2022 03:09:31.616,1.60048e+06,2502.44,141,6,-0.001059817,2.499976,-0.00264952,0.0007426584,0.0007366763,0.002426514,0.002140814,2522.1,2502.123,0,99.1945,,
	08/07/2022 08:40:23.515,1.62033e+06,2453.69,145,6,-0.001059853,2.499957,-0.00264959,0.0007281834,0.0007223191,0.002379663,0.002098346,2472.93,2453.387,0,99.19466,,
	08/07/2022 14:05:27.051,1.63983e+06,2419.35,149,6,-0.001059877,2.499846,-0.00264953,0.0007178771,0.0007122037,0.002345781,0.002069667,2437.998,2419.064,0,99.20969,,
	08/07/2022 19:27:30.650,1.65916e+06,2391.479,153,6,-0.001059848,2.499967,-0.00264959,0.0007093777,0.0007040239,0.002317558,0.002046262,2409.063,2391.207,0,99.24528,,
	08/08/2022 00:43:49.236,1.67813e+06,2344.53,157,6,-0.001060122,2.499991,-0.0026503,0.0006957249,0.0006903312,0.002273354,0.002005568,2362.645,2344.244,0,99.22474,,
	08/08/2022 05:53:55.565,1.69674e+06,2301.268,161,6,-0.001060135,2.499978,-0.00265031,0.0006821866,0.0006775451,0.002229686,0.001967552,2316.984,2300.872,0,99.3196,,
	08/08/2022 10:58:40.195,1.71503e+06,2266.36,165,6,-0.001059853,2.499982,-0.00264961,0.0006715964,0.0006671853,0.002195236,0.001937463,2280.646,2266.036,0,99.3432,,
	08/08/2022 16:01:13.778,1.73318e+06,2250.55,169,6,-0.001059866,2.49994,-0.0026496,0.0006674582,0.0006625154,0.002180868,0.001924848,2266.631,2250.168,0,99.25946,,
	08/08/2022 21:00:25.422,1.75113e+06,2226.17,173,6,-0.001059847,2.499982,-0.0026496,0.0006596381,0.0006552904,0.002155197,0.001904161,2240.139,2225.767,0,99.34089,,
	08/09/2022 01:54:44.763,1.76879e+06,2182.27,177,6,-0.001060106,2.499932,-0.00265019,0.0006471248,0.0006424799,0.002114802,0.001865779,2197.565,2181.867,0,99.28222,,
	08/09/2022 06:43:36.015,1.78612e+06,2145.69,181,6,-0.001060066,2.499999,-0.00265016,0.0006358065,0.0006317343,0.002078234,0.001833842,2159.214,2145.302,0,99.35952,,
	08/09/2022 11:27:54.829,1.80318e+06,2117.87,185,6,-0.001060165,2.499972,-0.00265038,0.0006270928,0.000623533,0.002049952,0.001809881,2129.813,2117.421,0,99.43234,,
	08/09/2022 16:10:59.513,1.82016e+06,2109.23,189,6,-0.001059809,2.499963,-0.00264948,0.000624544,0.0006210146,0.0020408,0.001803682,2120.87,2108.922,0,99.43489,,
	08/09/2022 20:50:57.343,1.83696e+06,2081.27,193,6,-0.00106015,2.499906,-0.00265028,0.0006169314,0.000612738,0.002015976,0.001779445,2095.073,2080.895,0,99.32029,,
	08/10/2022 01:26:37.143,1.8535e+06,2048.16,197,6,-0.001060041,2.499972,-0.00265007,0.0006064012,0.0006029585,0.001981858,0.001750269,2059.344,2047.839,0,99.43227,,
	08/10/2022 04:50:20.183,1.86573e+06,2021.43,200,6,-0.001059848,2.499978,-0.0026496,0.000599129,0.0005950733,0.001958418,0.001726746,2034.689,2021.073,0,99.32308,,

File: JB3_SiMP-LFP-PFOF3_03C_Channel_87_StatisticByStep.CSV
Date_Time                    ,Test Time (s),Step Time (s),Cycle Index,Step Index,Current (A),Voltage (V),Power (W),Charge Capacity (Ah),Discharge Capacity (Ah),Charge Energy (Wh),Discharge Energy (Wh),Charge Time (s),Discharge Time (s),V_Max_On_Cycle (V),Coulombic Efficiency (%),mAh/g
	07/20/2022 02:34:55.182,43200,43200,1.00,1.00,0,0.2597151,0,0,0,0,0,0,0,0,0,,
	07/24/2022 13:47:31.955,429157,8190.24,4.00,5.00,0.001060077,3.500031,0.0037103,0.002411471,2.340644E-10,0.007866333,5.851729E-10,8189.208,0.0053,0,9.70629E-06,,
	07/25/2022 04:31:46.615,482211,7395.34,7.00,6.00,-0.001060069,2.499984,-0.00265016,0.002209467,0.002177438,0.00718316,0.006295095,7503.247,7394.38,0,98.55037,,
	07/25/2022 18:41:11.315,533176,7203.57,11.00,5.00,0.001060141,3.500014,0.00371051,0.002121005,2.856572E-09,0.006891132,7.14209E-09,7202.681,0.009699999,0,0.0001346801,,
	07/26/2022 08:17:13.630,582138,6846.06,14.00,6.00,-0.001060055,2.499993,-0.00265013,0.002046572,0.002015722,0.006651401,0.005823568,6951.12,6845.215,0,98.49261,,
	07/26/2022 21:24:36.166,629381,6663.34,18.00,5.00,0.00105983,3.500035,0.00370944,0.001961928,3.387193E-09,0.006377112,8.468877E-09,6662.479,0.009,0,0.0001726461,,
	07/27/2022 10:01:29.978,674795,6363.73,21.00,6.00,-0.001060105,2.499928,-0.00265019,0.001898697,0.001873685,0.006172771,0.005415999,6448.737,6362.909,0,98.68267,,
	07/27/2022 22:13:10.818,718696,6184.59,25.00,5.00,0.001060093,3.500075,0.00371041,0.001820922,2.384869E-09,0.005921861,5.963038E-09,6183.746,0.0081,0,0.0001309704,,
	07/28/2022 09:55:57.666,760862,5907.23,28.00,6.00,-0.001060045,2.49998,-0.00265009,0.001763519,0.001739122,0.005736726,0.005030376,5989.956,5906.083,0,98.61656,,
	07/28/2022 21:15:40.472,801645,5750.04,32.00,5.00,0.001060151,3.500022,0.00371055,0.00169303,3.797794E-09,0.005508703,9.493285E-09,5749.232,0.0129,0,0.0002243193,,
	07/29/2022 08:09:09.036,840854,5488.05,35.00,6.00,-0.001060009,2.499866,-0.00264988,0.001640227,0.001615829,0.005338673,0.004678343,5570.955,5487.325,0,98.5125,,
	07/29/2022 18:41:35.320,878800,5382.36,39.00,5.00,0.001060115,3.500047,0.00371045,0.001584702,5.300665E-10,0.005156396,1.325196E-09,5381.632,0.0009,0,3.344897E-05,,
	07/30/2022 04:49:25.931,915271,5101.9,42.00,6.00,-0.001060094,2.499965,-0.0026502,0.001522308,0.001502199,0.004957909,0.004353183,5169.527,5101.229,0,98.67908,,
	07/30/2022 14:35:11.848,950417,4974.78,46.00,5.00,0.00106006,3.50001,0.00371022,0.001464702,2.767752E-09,0.004771604,6.921189E-09,4974.088,0.0094,0,0.0001889635,,
	07/31/2022 00:01:06.714,984372,4745.74,49.00,6.00,-0.001060151,2.499986,-0.00265036,0.001415491,0.001397326,0.00461241,0.004052892,4806.771,4745.11,0,98.71669,,
	07/31/2022 09:05:56.679,1.01706e+06,4615.21,53.00,5.00,0.00105984,3.500047,0.00370949,0.00135862,2.591267E-09,0.004428353,6.477702E-09,4614.582,0.007999999,0,0.0001907279,,
	07/31/2022 17:50:48.088,1.04855e+06,4416.12,56.00,6.00,-0.001059859,2.499932,-0.00264958,0.001318033,0.001300119,0.004297188,0.003773816,4475.853,4415.537,0,98.64088,,
	08/01/2022 02:19:25.025,1.07907e+06,4302.93,60.00,5.00,0.001060116,3.500018,0.00371043,0.001266949,1.53139E-09,0.004131522,3.828529E-09,4302.38,0.0052,0,0.0001208722,,
	08/01/2022 10:29:36.059,1.10848e+06,4128.68,63.00,6.00,-0.001059912,2.499991,-0.00264977,0.001231568,0.001215508,0.00401686,0.003529938,4182.22,4128.12,0,98.69598,,
	08/01/2022 18:26:50.151,1.13711e+06,4062.96,67.00,5.00,0.001059954,3.500066,0.00370991,0.001196183,3.827799E-09,0.003900531,9.569144E-09,4062.397,0.013,0,0.0003200012,,
	08/02/2022 02:11:31.751,1.165e+06,3922.48,70.00,6.00,-0.001059859,2.49993,-0.00264957,0.001169299,0.001154679,0.003812043,0.003359724,3971.126,3921.938,0,98.74963,,
	08/02/2022 09:43:03.141,1.19209e+06,3806.42,74.00,5.00,0.001060127,3.500007,0.00371045,0.001120753,1.972896E-09,0.003655527,4.932057E-09,3805.923,0.0067,0,0.0001760331,,
	08/02/2022 16:55:15.969,1.21802e+06,3639.57,77.00,6.00,-0.001060052,2.499961,-0.00265009,0.001085396,0.001071586,0.003542555,0.003114163,3686.652,3639.072,0,98.72766,,
	08/02/2022 23:55:38.186,1.24324e+06,3572.08,81.00,5.00,0.001060123,3.500007,0.00371044,0.001051749,2.002503E-09,0.003432794,5.006207E-09,3571.573,0.0068,0,0.0001903974,,
	08/03/2022 06:43:43.511,1.26773e+06,3443.58,84.00,6.00,-0.00106008,2.499852,-0.00265004,0.001025648,0.001013896,0.00334834,0.002946929,3483.297,3443.137,0,98.85424,,
	08/03/2022 13:22:09.520,1.29163e+06,3398.79,88.00,5.00,0.001060053,3.500009,0.0037102,0.001000663,2.532579E-09,0.003266414,6.331609E-09,3398.304,0.008599999,0,0.0002530901,,
	08/03/2022 19:50:31.617,1.31494e+06,3278.82,91.00,6.00,-0.001060092,2.499955,-0.00265018,0.0009750944,0.0009653468,0.003183867,0.002806602,3311.932,3278.254,0,99.00034,,
	08/04/2022 02:10:27.251,1.33773e+06,3243.34,95.00,5.00,0.001060129,3.500112,0.00371057,0.0009549,2.267303E-09,0.003116895,5.66803E-09,3242.767,0.0077,0,0.0002374388,,
	08/04/2022 08:20:35.240,1.35994e+06,3128.33,98.00,6.00,-0.001060122,2.499984,-0.00265029,0.0009293221,0.0009210428,0.003035077,0.002677405,3156.308,3127.757,0,99.1091,,
	08/04/2022 14:23:15.335,1.3817e+06,3092.88,102.00,5.00,0.001060121,3.500056,0.00371048,0.0009106364,1.178001E-09,0.002973554,2.944767E-09,3092.378,0.004,0,0.0001293601,,
	08/04/2022 20:18:43.348,1.40303e+06,3007.93,105.00,6.00,-0.001059858,2.49998,-0.00264962,0.0008952907,0.0008855909,0.00292349,0.002575675,3040.299,3007.444,0,98.91657,,
	08/05/2022 02:06:04.666,1.42387e+06,2956.07,109.00,5.00,0.001059892,3.500007,0.00370963,0.0008702122,2.503057E-09,0.00284268,6.257427E-09,2955.514,0.0085,0,0.0002876376,,
	08/05/2022 07:45:12.743,1.44422e+06,2874.07,112.00,6.00,-0.001059806,2.499988,-0.0026495,0.000854134,0.0008461447,0.002790353,0.002459558,2900.503,2873.684,0,99.06464,,
	08/05/2022 13:18:35.325,1.46422e+06,2855.67,116.00,5.00,0.001060021,3.500045,0.00371012,0.0008407478,1.736982E-09,0.002745993,4.342564E-09,2855.292,0.0059,0,0.0002065997,,
	08/05/2022 18:48:26.249,1.48401e+06,2803.1,119.00,6.00,-0.001059937,2.499999,-0.00264984,0.0008327155,0.0008252019,0.002719008,0.002401332,2828.152,2802.756,0,99.09769,,
	08/06/2022 00:12:41.497,1.50347e+06,2757.6,123.00,5.00,0.001060056,3.500016,0.00371021,0.0008119,1.472173E-09,0.002651535,3.680703E-09,2757.242,0.005,0,0.0001813244,,
	08/06/2022 05:29:18.200,1.52246e+06,2680.68,126.00,6.00,-0.001060119,2.499923,-0.00265022,0.0007969608,0.0007892902,0.002603512,0.002294436,2706.396,2680.365,0,99.03751,,
	08/06/2022 10:39:23.565,1.54107e+06,2643.73,130.00,5.00,0.001060118,3.500108,0.00371053,0.0007784178,1.619519E-09,0.002543617,4.048435E-09,2643.387,0.0055,0,0.0002080527,,
	08/06/2022 15:45:18.565,1.55942e+06,2611.39,133.00,6.00,-0.001059917,2.499967,-0.00264976,0.0007742805,0.0007687258,0.002529203,0.002235572,2629.572,2611.045,0,99.2826,,
	08/06/2022 20:48:48.215,1.57763e+06,2587.5,137.00,5.00,0.001060037,3.500014,0.00371014,0.0007618039,3.23918E-09,0.002488098,8.09975E-09,2587.167,0.011,0,0.0004251986,,
	08/07/2022 01:45:46.687,1.59545e+06,2516.86,140.00,6.00,-0.001060147,2.499978,-0.00265034,0.0007466323,0.0007409169,0.002439304,0.002153382,2535.572,2516.558,0,99.2345,,
	08/07/2022 06:37:09.690,1.61293e+06,2485.61,144.00,5.00,0.001060067,3.50003,0.00371027,0.0007318284,2.709452E-09,0.002391428,6.774651E-09,2485.279,0.0084,0,0.0003702304,,
	08/07/2022 11:23:23.583,1.63011e+06,2430.58,147.00,6.00,-0.001059934,2.499991,-0.00264983,0.0007208213,0.0007154959,0.002355818,0.002078315,2447.889,2430.244,0,99.26121,,
	08/07/2022 16:06:50.213,1.64712e+06,2430.39,151.00,5.00,0.001060067,3.500001,0.00371024,0.000715562,3.003396E-09,0.002337723,7.508744E-09,2430.071,0.0093,0,0.0004197255,,
	08/07/2022 20:47:08.873,1.66393e+06,2379.67,154.00,6.00,-0.001059894,2.499965,-0.0026497,0.000706179,0.0007005267,0.002307253,0.002035996,2398.205,2379.406,0,99.1996,,
	08/08/2022 01:23:00.044,1.68048e+06,2350.78,158.00,5.00,0.001060151,3.500068,0.0037106,0.000692163,2.855954E-09,0.002261908,7.139555E-09,2350.463,0.009699999,0,0.0004126129,,
	08/08/2022 05:53:55.565,1.69674e+06,2301.27,161.00,6.00,-0.001060135,2.499978,-0.00265031,0.0006821866,0.0006775451,0.002229686,0.001967552,2316.984,2300.872,0,99.3196,,
	08/08/2022 10:20:53.806,1.71276e+06,2281.06,165.00,5.00,0.001060111,3.500001,0.00371039,0.0006715946,2.826761E-09,0.002195229,7.066141E-09,2280.639,0.0096,0,0.0004209029,,
	08/08/2022 14:45:56.119,1.72866e+06,2261.95,168.00,6.00,-0.001059909,2.499997,-0.00264977,0.0006710115,0.000665821,0.002192447,0.001934756,2278.746,2261.541,0,99.22646,,
	08/08/2022 19:08:46.228,1.74443e+06,2248.69,172.00,5.00,0.001060084,3.500007,0.0037103,0.0006620697,1.590333E-09,0.002163064,3.97582E-09,2248.358,0.0054,0,0.0002402063,,
	08/08/2022 23:28:21.042,1.76001e+06,2205.1,175.00,6.00,-0.001059838,2.499963,-0.00264956,0.0006541222,0.0006491853,0.002137349,0.001885931,2221.354,2204.701,0,99.24525,,
	08/09/2022 03:43:43.444,1.77533e+06,2178.19,179.00,5.00,0.001060107,3.500009,0.00371038,0.0006413048,2.326602E-09,0.002096032,5.816921E-09,2177.752,0.0079,0,0.0003627919,,
	08/09/2022 07:55:03.649,1.79041e+06,2135.17,182.00,6.00,-0.001060069,2.499986,-0.00265016,0.0006335886,0.0006286422,0.002071059,0.001824719,2151.966,2134.791,0,99.2193,,
	08/09/2022 12:03:27.660,1.80531e+06,2132.8,186.00,5.00,0.001060134,3.500041,0.00371051,0.0006279299,2.384867E-09,0.002052344,5.961901E-09,2132.356,0.0081,0,0.0003797982,,
	08/09/2022 16:10:59.513,1.82016e+06,2109.23,189.00,6.00,-0.001059809,2.499963,-0.00264948,0.000624544,0.0006210146,0.0020408,0.001803682,2120.87,2108.922,0,99.43489,,
	08/09/2022 20:16:16.048,1.83488e+06,2095.5,193.00,5.00,0.00106009,3.500016,0.00371033,0.0006169297,2.50324E-09,0.002015971,6.258644E-09,2095.068,0.0072,0,0.0004057578,,
	08/10/2022 00:18:09.230,1.84939e+06,2055.01,196.00,6.00,-0.001059866,2.499997,-0.00264966,0.0006096333,0.0006049254,0.001992295,0.001756226,2070.357,2054.696,0,99.22775,,
	08/10/2022 04:16:38.734,1.8637e+06,2035.05,200.00,5.00,0.001060048,3.500007,0.00371018,0.0005991271,2.119783E-09,0.001958411,5.29944E-09,2034.682,0.0072,0,0.0003538119,,
	08/10/2022 04:50:20.183,1.86573e+06,2021.43,200.00,6.00,-0.001059848,2.499978,-0.0026496,0.000599129,0.0005950733,0.001958418,0.001726746,2034.689,2021.073,0,99.32308,,